"","subject_id","subject_language.x","survey_time","chrome","firefox","IE","safari","opera","other","don't know","headphones","speakers","earbuds","very bad","bad","normal","good","very good","distractions_yes","distractions_no","wireless","wired","very_slowly","slowly","tolerably_so","pretty_fast","no_loading_time","satisfaction","subject_language.y","18-29yrs","30-39yrs","40-49yrs","50-59yrs","60-69yrs","more_than_69yrs","handedness_L","handedness_R","french_native","french_non_native","lang_other_target_no","lang_other_target_yes","other_lang_na","other_lang_na2","other_lang_native","other_lang_bcpdexp","other_lang_assezdexp","other_lang_unpeudexp","other_lang_trespeudexp","other_lang_comp_na","other_lang_comp_na2","other_lang_comp_native","other_lang_presque_native","other_lang_avancee","other_lang_intermediare","other_lang_debutant","hear_vis_problems_yes","hear_vis_problems_no","troubles_de_lang_yes","troubles_de_lang_no","ling_course_yes","ling_course_no","phonet_course_yes","phonet_course_no","phonog_course_yes","phonog_course_no","subject_language","trial_type","tripletid","S-order","A_Order","RT","order","first_sound","second_sound","paid_attention","corr_ans","context","file_OTH","file_TGT","file_X","speaker_OTH","speaker_TGT","speaker_X","vowel_OTH","vowel_TGT","vowel_X","vowel_eng","vowel_fr","word_OTH","word_TGT","word_X","user_resp","user_corr"
"1","X_BXDUYGLTPI","eng","0:22.2",1,0,0,0,0,0,0,0,0,1,0,0,0,1,0,0,1,1,0,0,0,0,1,0,83,"eng",1,0,0,0,0,0,0,1,NA,NA,1,0,1,NA,0,0,0,0,0,1,NA,0,0,0,0,0,0,1,0,1,0,1,0,1,0,1,"eng","prot_catch_trial","triplet35","orderSI=31","orderAI=16","0:3.7","16;",0,1,NA,"B","F_P","veronique_fr_8","maureen_eng_219","jeremy_eng_219","veronique","maureen","jeremy","U","IH","IH","IH","U","FUP","FIHP","FIHP","B",1
"2","X_BXDUYGLTPI","eng","0:22.2",1,0,0,0,0,0,0,0,0,1,0,0,0,1,0,0,1,1,0,0,0,0,1,0,83,"eng",1,0,0,0,0,0,0,1,NA,NA,1,0,1,NA,0,0,0,0,0,1,NA,0,0,0,0,0,0,1,0,1,0,1,0,1,0,1,"eng","prot_catch_trial","triplet27","orderSI=22","orderAI=17","0:3.7","17;",0,1,NA,"B","V_G","veronique_fr_47","maureen_eng_76","ewan_eng_77","veronique","maureen","ewan","E","AH","AH","AH","E","VEG","VAHG","VAHG","B",1
"3","X_BXDUYGLTPI","eng","0:22.2",1,0,0,0,0,0,0,0,0,1,0,0,0,1,0,0,1,1,0,0,0,0,1,0,83,"eng",1,0,0,0,0,0,0,1,NA,NA,1,0,1,NA,0,0,0,0,0,1,NA,0,0,0,0,0,0,1,0,1,0,1,0,1,0,1,"eng","prot_catch_trial","triplet23","orderSI=29","orderAI=18","0:3.1","18;",0,1,NA,"B","Z_D","veronique_fr_69","maureen_eng_68","jeremy_eng_68","veronique","maureen","jeremy","I","AH","AH","AH","I","ZID","ZAHD","ZAHD","B",1
"4","X_BXDUYGLTPI","eng","0:22.2",1,0,0,0,0,0,0,0,0,1,0,0,0,1,0,0,1,1,0,0,0,0,1,0,83,"eng",1,0,0,0,0,0,0,1,NA,NA,1,0,1,NA,0,0,0,0,0,1,NA,0,0,0,0,0,0,1,0,1,0,1,0,1,0,1,"eng","prot_catch_trial","triplet107","orderSI=52","orderAI=19","0:4.1","19;",0,1,NA,"B","V_SH","maureen_fr_166","veronique_eng_33","ewan_eng_36","maureen","veronique","ewan","O","UH","UH","UH","O","VOSH","VUHSH","VUHSH","B",1
"5","X_BXDUYGLTPI","eng","0:22.2",1,0,0,0,0,0,0,0,0,1,0,0,0,1,0,0,1,1,0,0,0,0,1,0,83,"eng",1,0,0,0,0,0,0,1,NA,NA,1,0,1,NA,0,0,0,0,0,1,NA,0,0,0,0,0,0,1,0,1,0,1,0,1,0,1,"eng","prot_catch_trial","triplet104","orderSI=38","orderAI=20","0:3.8","20;",1,0,NA,"A","Z_V","veronique_eng_221","maureen_fr_23","marc_fr_18","veronique","maureen","marc","IH","U","U","IH","U","ZIHV","ZUV","ZUV","A",1
"6","X_BXDUYGLTPI","eng","0:22.2",1,0,0,0,0,0,0,0,0,1,0,0,0,1,0,0,1,1,0,0,0,0,1,0,83,"eng",1,0,0,0,0,0,0,1,NA,NA,1,0,1,NA,0,0,0,0,0,1,NA,0,0,0,0,0,0,1,0,1,0,1,0,1,0,1,"eng","prot_catch_trial","triplet19","orderSI=19","orderAI=21","0:3.1","21;",0,1,NA,"B","Z_V","veronique_fr_164","maureen_eng_23","jeremy_eng_23","veronique","maureen","jeremy","A","UH","UH","UH","A","ZAV","ZUHV","ZUHV","B",1
"7","X_BXDUYGLTPI","eng","0:22.2",1,0,0,0,0,0,0,0,0,1,0,0,0,1,0,0,1,1,0,0,0,0,1,0,83,"eng",1,0,0,0,0,0,0,1,NA,NA,1,0,1,NA,0,0,0,0,0,1,NA,0,0,0,0,0,0,1,0,1,0,1,0,1,0,1,"eng","prot_catch_trial","triplet110","orderSI=41","orderAI=22","0:3.6","22;",0,1,NA,"B","SH_S","maureen_eng_31","veronique_fr_107","remi_fr_106","maureen","veronique","remi","UH","I","I","UH","I","SHUHS","SHIS","SHIS","B",1
"8","X_BXDUYGLTPI","eng","0:22.2",1,0,0,0,0,0,0,0,0,1,0,0,0,1,0,0,1,1,0,0,0,0,1,0,83,"eng",1,0,0,0,0,0,0,1,NA,NA,1,0,1,NA,0,0,0,0,0,1,NA,0,0,0,0,0,0,1,0,1,0,1,0,1,0,1,"eng","prot_catch_trial","triplet90","orderSI=36","orderAI=23","0:3.8","23;",0,1,NA,"B","V_F","veronique_eng_59","maureen_fr_68","marc_fr_60","veronique","maureen","marc","AE","E","E","AE","E","VAEF","VEF","VEF","B",1
"9","X_BXDUYGLTPI","eng","0:22.2",1,0,0,0,0,0,0,0,0,1,0,0,0,1,0,0,1,1,0,0,0,0,1,0,83,"eng",1,0,0,0,0,0,0,1,NA,NA,1,0,1,NA,0,0,0,0,0,1,NA,0,0,0,0,0,0,1,0,1,0,1,0,1,0,1,"eng","prot_catch_trial","triplet20","orderSI=33","orderAI=24","0:3.9","24;",1,0,NA,"A","Z_B","maureen_eng_4","veronique_fr_82","marc_fr_77","maureen","veronique","marc","UH","Y","Y","UH","Y","ZUHB","ZYB","ZYB","A",1
"10","X_BXDUYGLTPI","eng","0:22.2",1,0,0,0,0,0,0,0,0,1,0,0,0,1,0,0,1,1,0,0,0,0,1,0,83,"eng",1,0,0,0,0,0,0,1,NA,NA,1,0,1,NA,0,0,0,0,0,1,NA,0,0,0,0,0,0,1,0,1,0,1,0,1,0,1,"eng","prot_catch_trial","triplet18","orderSI=18","orderAI=25","0:4.4","25;",0,1,NA,"B","Z_F","veronique_eng_219","maureen_fr_169","marc_fr_159","veronique","maureen","marc","IH","A","A","IH","A","ZIHF","ZAF","ZAF","B",1
"11","X_BXDUYGLTPI","eng","0:22.2",1,0,0,0,0,0,0,0,0,1,0,0,0,1,0,0,1,1,0,0,0,0,1,0,83,"eng",1,0,0,0,0,0,0,1,NA,NA,1,0,1,NA,0,0,0,0,0,1,NA,0,0,0,0,0,0,1,0,1,0,1,0,1,0,1,"eng","prot_catch_trial","triplet26","orderSI=25","orderAI=26","0:4.1","26;",0,1,NA,"B","Z_B","veronique_eng_204","maureen_fr_4","remi_fr_4","veronique","maureen","remi","IH","U","U","IH","U","ZIHB","ZUB","ZUB","B",1
"12","X_BXDUYGLTPI","eng","0:22.2",1,0,0,0,0,0,0,0,0,1,0,0,0,1,0,0,1,1,0,0,0,0,1,0,83,"eng",1,0,0,0,0,0,0,1,NA,NA,1,0,1,NA,0,0,0,0,0,1,NA,0,0,0,0,0,0,1,0,1,0,1,0,1,0,1,"eng","prot_catch_trial","triplet44","orderSI=50","orderAI=27","0:8.2","27;",1,0,NA,"A","Z_F","veronique_eng_219","maureen_fr_104","remi_fr_99","veronique","maureen","remi","IH","I","I","IH","I","ZIHF","ZIF","ZIF","A",1
"13","X_BXDUYGLTPI","eng","0:22.2",1,0,0,0,0,0,0,0,0,1,0,0,0,1,0,0,1,1,0,0,0,0,1,0,83,"eng",1,0,0,0,0,0,0,1,NA,NA,1,0,1,NA,0,0,0,0,0,1,NA,0,0,0,0,0,0,1,0,1,0,1,0,1,0,1,"eng","prot_catch_trial","triplet36","orderSI=27","orderAI=28","1:5.1","28;",1,0,NA,"A","Z_S","maureen_eng_229","veronique_fr_131","marc_fr_126","maureen","veronique","marc","IH","OE","OE","IH","OE","ZIHS","ZOES","ZOES","A",1
"14","X_BXDUYGLTPI","eng","0:22.2",1,0,0,0,0,0,0,0,0,1,0,0,0,1,0,0,1,1,0,0,0,0,1,0,83,"eng",1,0,0,0,0,0,0,1,NA,NA,1,0,1,NA,0,0,0,0,0,1,NA,0,0,0,0,0,0,1,0,1,0,1,0,1,0,1,"eng","prot_catch_trial","triplet9","orderSI=30","orderAI=29","0:3.7","29;",1,0,NA,"A","V_B","maureen_fr_100","veronique_eng_17","jeremy_eng_17","maureen","veronique","jeremy","Y","UH","UH","UH","Y","VYB","VUHB","VUHB","A",1
"15","X_BXDUYGLTPI","eng","0:22.2",1,0,0,0,0,0,0,0,0,1,0,0,0,1,0,0,1,1,0,0,0,0,1,0,83,"eng",1,0,0,0,0,0,0,1,NA,NA,1,0,1,NA,0,0,0,0,0,1,NA,0,0,0,0,0,0,1,0,1,0,1,0,1,0,1,"eng","prot_catch_trial","triplet91","orderSI=47","orderAI=30","1:16.2","30;",0,1,NA,"B","Z_V","maureen_fr_119","veronique_eng_49","ewan_eng_53","maureen","veronique","ewan","Y","AE","AE","AE","Y","ZYV","ZAEV","ZAEV","B",1
"16","X_BXDUYGLTPI","eng","0:22.2",1,0,0,0,0,0,0,0,0,1,0,0,0,1,0,0,1,1,0,0,0,0,1,0,83,"eng",1,0,0,0,0,0,0,1,NA,NA,1,0,1,NA,0,0,0,0,0,1,NA,0,0,0,0,0,0,1,0,1,0,1,0,1,0,1,"eng","prot_catch_trial","triplet22","orderSI=26","orderAI=31","0:3.6","31;",0,1,NA,"B","V_SH","veronique_eng_60","maureen_fr_152","marc_fr_142","veronique","maureen","marc","AE","OE","OE","AE","OE","VAESH","VOESH","VOESH","B",1
"17","X_BXDUYGLTPI","eng","0:22.2",1,0,0,0,0,0,0,0,0,1,0,0,0,1,0,0,1,1,0,0,0,0,1,0,83,"eng",1,0,0,0,0,0,0,1,NA,NA,1,0,1,NA,0,0,0,0,0,1,NA,0,0,0,0,0,0,1,0,1,0,1,0,1,0,1,"eng","prot_catch_trial","triplet25","orderSI=20","orderAI=32","0:3.6","32;",1,0,NA,"A","Z_B","veronique_fr_208","maureen_eng_215","jeremy_eng_215","veronique","maureen","jeremy","A","IH","IH","IH","A","ZAB","ZIHB","ZIHB","A",1
"18","X_BXDUYGLTPI","eng","0:22.2",1,0,0,0,0,0,0,0,0,1,0,0,0,1,0,0,1,1,0,0,0,0,1,0,83,"eng",1,0,0,0,0,0,0,1,NA,NA,1,0,1,NA,0,0,0,0,0,1,NA,0,0,0,0,0,0,1,0,1,0,1,0,1,0,1,"eng","prot_catch_trial","triplet31","orderSI=21","orderAI=33","0:3.4","33;",1,0,NA,"B","Z_V","veronique_fr_134","maureen_eng_100","jeremy_eng_98","veronique","maureen","jeremy","OE","AH","AH","AH","OE","ZOEV","ZAHV","ZAHV","A",0
"19","X_BXDUYGLTPI","eng","0:22.2",1,0,0,0,0,0,0,0,0,1,0,0,0,1,0,0,1,1,0,0,0,0,1,0,83,"eng",1,0,0,0,0,0,0,1,NA,NA,1,0,1,NA,0,0,0,0,0,1,NA,0,0,0,0,0,0,1,0,1,0,1,0,1,0,1,"eng","prot_catch_trial","triplet8","orderSI=35","orderAI=34","0:3.7","34;",1,0,NA,"A","V_Z","veronique_eng_30","maureen_fr_150","marc_fr_140","veronique","maureen","marc","UH","OE","OE","UH","OE","VUHZ","VOEZ","VOEZ","A",1
"20","X_BXDUYGLTPI","eng","0:22.2",1,0,0,0,0,0,0,0,0,1,0,0,0,1,0,0,1,1,0,0,0,0,1,0,83,"eng",1,0,0,0,0,0,0,1,NA,NA,1,0,1,NA,0,0,0,0,0,1,NA,0,0,0,0,0,0,1,0,1,0,1,0,1,0,1,"eng","prot_catch_trial","triplet87","orderSI=48","orderAI=35","0:3.7","35;",0,1,NA,"B","V_Z","maureen_fr_129","veronique_eng_116","jeremy_eng_120","maureen","veronique","jeremy","Y","AH","AH","AH","Y","VYZ","VAHZ","VAHZ","B",1
"21","X_BXDUYGLTPI","eng","0:22.2",1,0,0,0,0,0,0,0,0,1,0,0,0,1,0,0,1,1,0,0,0,0,1,0,83,"eng",1,0,0,0,0,0,0,1,NA,NA,1,0,1,NA,0,0,0,0,0,1,NA,0,0,0,0,0,0,1,0,1,0,1,0,1,0,1,"eng","prot_catch_trial","triplet105","orderSI=44","orderAI=36","0:4.3","36;",1,0,NA,"A","Z_D","maureen_fr_203","veronique_eng_205","jeremy_eng_216","maureen","veronique","jeremy","O","IH","IH","IH","O","ZOD","ZIHD","ZIHD","A",1
"22","X_BXDUYGLTPI","eng","0:22.2",1,0,0,0,0,0,0,0,0,1,0,0,0,1,0,0,1,1,0,0,0,0,1,0,83,"eng",1,0,0,0,0,0,0,1,NA,NA,1,0,1,NA,0,0,0,0,0,1,NA,0,0,0,0,0,0,1,0,1,0,1,0,1,0,1,"eng","prot_catch_trial","triplet24","orderSI=17","orderAI=37","0:4.0","37;",1,0,NA,"A","Z_D","veronique_eng_36","maureen_fr_40","remi_fr_39","veronique","maureen","remi","AE","E","E","AE","E","ZAED","ZED","ZED","A",1
"23","X_BXDUYGLTPI","eng","0:22.2",1,0,0,0,0,0,0,0,0,1,0,0,0,1,0,0,1,1,0,0,0,0,1,0,83,"eng",1,0,0,0,0,0,0,1,NA,NA,1,0,1,NA,0,0,0,0,0,1,NA,0,0,0,0,0,0,1,0,1,0,1,0,1,0,1,"eng","prot_catch_trial","triplet37","orderSI=28","orderAI=38","0:7.7","38;",1,0,NA,"A","V_K","veronique_fr_76","maureen_eng_15","ewan_eng_15","veronique","maureen","ewan","I","UH","UH","UH","I","VIK","VUHK","VUHK","A",1
"24","X_BXDUYGLTPI","eng","0:22.2",1,0,0,0,0,0,0,0,0,1,0,0,0,1,0,0,1,1,0,0,0,0,1,0,83,"eng",1,0,0,0,0,0,0,1,NA,NA,1,0,1,NA,0,0,0,0,0,1,NA,0,0,0,0,0,0,1,0,1,0,1,0,1,0,1,"eng","prot_catch_trial","triplet78","orderSI=53","orderAI=39","0:2.9","39;",0,1,NA,"B","SH_B","maureen_eng_223","veronique_fr_90","remi_fr_89","maureen","veronique","remi","IH","Y","Y","IH","Y","SHIHB","SHYB","SHYB","B",1
"25","X_BXDUYGLTPI","eng","0:22.2",1,0,0,0,0,0,0,0,0,1,0,0,0,1,0,0,1,1,0,0,0,0,1,0,83,"eng",1,0,0,0,0,0,0,1,NA,NA,1,0,1,NA,0,0,0,0,0,1,NA,0,0,0,0,0,0,1,0,1,0,1,0,1,0,1,"eng","prot_catch_trial","triplet33","orderSI=23","orderAI=40","0:4.3","40;",1,0,NA,"A","V_G","maureen_fr_197","veronique_eng_215","ewan_eng_232","maureen","veronique","ewan","OE","IH","IH","IH","OE","VOEG","VIHG","VIHG","A",1
"26","X_BXDUYGLTPI","eng","0:22.2",1,0,0,0,0,0,0,0,0,1,0,0,0,1,0,0,1,1,0,0,0,0,1,0,83,"eng",1,0,0,0,0,0,0,1,NA,NA,1,0,1,NA,0,0,0,0,0,1,NA,0,0,0,0,0,0,1,0,1,0,1,0,1,0,1,"eng","prot_catch_trial","triplet85","orderSI=46","orderAI=41","0:4.0","41;",1,0,NA,"A","V_SH","maureen_fr_36","veronique_eng_60","jeremy_eng_63","maureen","veronique","jeremy","U","AE","AE","AE","U","VUSH","VAESH","VAESH","A",1
"27","X_BXDUYGLTPI","eng","0:22.2",1,0,0,0,0,0,0,0,0,1,0,0,0,1,0,0,1,1,0,0,0,0,1,0,83,"eng",1,0,0,0,0,0,0,1,NA,NA,1,0,1,NA,0,0,0,0,0,1,NA,0,0,0,0,0,0,1,0,1,0,1,0,1,0,1,"eng","prot_catch_trial","triplet47","orderSI=40","orderAI=42","0:3.4","42;",0,1,NA,"B","S_G","maureen_fr_222","veronique_eng_67","jeremy_eng_70","maureen","veronique","jeremy","A","AH","AH","AH","A","SAG","SAHG","SAHG","B",1
"28","X_BXDUYGLTPI","eng","0:22.2",1,0,0,0,0,0,0,0,0,1,0,0,0,1,0,0,1,1,0,0,0,0,1,0,83,"eng",1,0,0,0,0,0,0,1,NA,NA,1,0,1,NA,0,0,0,0,0,1,NA,0,0,0,0,0,0,1,0,1,0,1,0,1,0,1,"eng","prot_catch_trial","triplet32","orderSI=24","orderAI=43","0:3.3","43;",1,0,NA,"A","Z_SH","veronique_eng_48","maureen_fr_105","marc_fr_96","veronique","maureen","marc","AE","I","I","AE","I","ZAESH","ZISH","ZISH","A",1
"29","X_BXDUYGLTPI","eng","0:22.2",1,0,0,0,0,0,0,0,0,1,0,0,0,1,0,0,1,1,0,0,0,0,1,0,83,"eng",1,0,0,0,0,0,0,1,NA,NA,1,0,1,NA,0,0,0,0,0,1,NA,0,0,0,0,0,0,1,0,1,0,1,0,1,0,1,"eng","prot_catch_trial","triplet21","orderSI=32","orderAI=44","0:3.4","44;",1,0,NA,"A","SH_S","maureen_fr_126","veronique_eng_54","jeremy_eng_57","maureen","veronique","jeremy","Y","AE","AE","AE","Y","SHYS","SHAES","SHAES","A",1
"30","X_BXDUYGLTPI","eng","0:22.2",1,0,0,0,0,0,0,0,0,1,0,0,0,1,0,0,1,1,0,0,0,0,1,0,83,"eng",1,0,0,0,0,0,0,1,NA,NA,1,0,1,NA,0,0,0,0,0,1,NA,0,0,0,0,0,0,1,0,1,0,1,0,1,0,1,"eng","prot_catch_trial","triplet34","orderSI=34","orderAI=45","0:3.7","45;",0,1,NA,"B","Z_V","veronique_eng_95","maureen_fr_58","remi_fr_54","veronique","maureen","remi","AH","E","E","AH","E","ZAHV","ZEV","ZEV","B",1
"31","X_BXDUYGLTPI","eng","0:22.2",1,0,0,0,0,0,0,0,0,1,0,0,0,1,0,0,1,1,0,0,0,0,1,0,83,"eng",1,0,0,0,0,0,0,1,NA,NA,1,0,1,NA,0,0,0,0,0,1,NA,0,0,0,0,0,0,1,0,1,0,1,0,1,0,1,"eng","prot_catch_trial","triplet84","orderSI=37","orderAI=46","0:3.2","46;",1,0,NA,"A","V_B","maureen_eng_77","veronique_fr_194","remi_fr_192","maureen","veronique","remi","AH","OE","OE","AH","OE","VAHB","VOEB","VOEB","A",1
"32","X_BXDUYGLTPI","eng","0:22.2",1,0,0,0,0,0,0,0,0,1,0,0,0,1,0,0,1,1,0,0,0,0,1,0,83,"eng",1,0,0,0,0,0,0,1,NA,NA,1,0,1,NA,0,0,0,0,0,1,NA,0,0,0,0,0,0,1,0,1,0,1,0,1,0,1,"eng","prot_catch_trial","triplet53","orderSI=39","orderAI=47","0:4.8","47;",0,1,NA,"A","Z_G","maureen_fr_183","veronique_eng_3","ewan_eng_3","maureen","veronique","ewan","OE","UH","UH","UH","OE","ZOEG","ZUHG","ZUHG","B",0
"33","X_BXDUYGLTPI","eng","0:22.2",1,0,0,0,0,0,0,0,0,1,0,0,0,1,0,0,1,1,0,0,0,0,1,0,83,"eng",1,0,0,0,0,0,0,1,NA,NA,1,0,1,NA,0,0,0,0,0,1,NA,0,0,0,0,0,0,1,0,1,0,1,0,1,0,1,"eng","prot_catch_trial","triplet46","orderSI=42","orderAI=48","0:2.8","48;",0,1,NA,"B","Z_F","maureen_eng_50","veronique_fr_113","marc_fr_108","maureen","veronique","marc","AE","Y","Y","AE","Y","ZAEF","ZYF","ZYF","B",1
"34","X_BXDUYGLTPI","eng","0:22.2",1,0,0,0,0,0,0,0,0,1,0,0,0,1,0,0,1,1,0,0,0,0,1,0,83,"eng",1,0,0,0,0,0,0,1,NA,NA,1,0,1,NA,0,0,0,0,0,1,NA,0,0,0,0,0,0,1,0,1,0,1,0,1,0,1,"eng","prot_catch_trial","triplet93","orderSI=49","orderAI=49","0:3.2","49;",1,0,NA,"A","V_SH","veronique_fr_128","maureen_eng_236","jeremy_eng_238","veronique","maureen","jeremy","Y","IH","IH","IH","Y","VYSH","VIHSH","VIHSH","A",1
"35","X_BXDUYGLTPI","eng","0:22.2",1,0,0,0,0,0,0,0,0,1,0,0,0,1,0,0,1,1,0,0,0,0,1,0,83,"eng",1,0,0,0,0,0,0,1,NA,NA,1,0,1,NA,0,0,0,0,0,1,NA,0,0,0,0,0,0,1,0,1,0,1,0,1,0,1,"eng","prot_catch_trial","triplet111","orderSI=43","orderAI=50","0:3.2","50;",0,1,NA,"B","Z_S","maureen_fr_55","veronique_eng_218","ewan_eng_235","maureen","veronique","ewan","E","IH","IH","IH","E","ZES","ZIHS","ZIHS","B",1
"36","X_BXDUYGLTPI","eng","0:22.2",1,0,0,0,0,0,0,0,0,1,0,0,0,1,0,0,1,1,0,0,0,0,1,0,83,"eng",1,0,0,0,0,0,0,1,NA,NA,1,0,1,NA,0,0,0,0,0,1,NA,0,0,0,0,0,0,1,0,1,0,1,0,1,0,1,"eng","prot_catch_trial","triplet50","orderSI=51","orderAI=52","0:3.9","52;",0,1,NA,"B","Z_S","veronique_eng_93","maureen_fr_168","marc_fr_158","veronique","maureen","marc","AH","A","A","AH","A","ZAHS","ZAS","ZAS","B",1
"37","X_BXDUYGLTPI","eng","0:22.2",1,0,0,0,0,0,0,0,0,1,0,0,0,1,0,0,1,1,0,0,0,0,1,0,83,"eng",1,0,0,0,0,0,0,1,NA,NA,1,0,1,NA,0,0,0,0,0,1,NA,0,0,0,0,0,0,1,0,1,0,1,0,1,0,1,"eng","prot_catch_trial","triplet52","orderSI=45","orderAI=53","0:3.1","53;",1,0,NA,"A","SH_S","maureen_eng_117","veronique_fr_31","remi_fr_30","maureen","veronique","remi","AH","U","U","AH","U","SHAHS","SHUS","SHUS","A",1
"38","X_BXDUYGLTPI","eng","0:22.2",1,0,0,0,0,0,0,0,0,1,0,0,0,1,0,0,1,1,0,0,0,0,1,0,83,"eng",1,0,0,0,0,0,0,1,NA,NA,1,0,1,NA,0,0,0,0,0,1,NA,0,0,0,0,0,0,1,0,1,0,1,0,1,0,1,"eng","prot_catch_trial","triplet30","orderSI=16","orderAI=54","0:3.6","54;",1,0,NA,"B","Z_D","veronique_eng_65","maureen_fr_184","marc_fr_175","veronique","maureen","marc","AH","OE","OE","AH","OE","ZAHD","ZOED","ZOED","A",0
"39","X_BXDUYGLTPI","eng","0:22.2",1,0,0,0,0,0,0,0,0,1,0,0,0,1,0,0,1,1,0,0,0,0,1,0,83,"eng",1,0,0,0,0,0,0,1,NA,NA,1,0,1,NA,0,0,0,0,0,1,NA,0,0,0,0,0,0,1,0,1,0,1,0,1,0,1,"eng","prot_catch_trial","triplet59","orderSI=93","orderAI=56","0:3.4","56;",0,1,NA,"B","V_B","maureen_fr_198","veronique_eng_43","jeremy_eng_46","maureen","veronique","jeremy","OE","AE","AE","AE","OE","VOEB","VAEB","VAEB","B",1
"40","X_BXDUYGLTPI","eng","0:22.2",1,0,0,0,0,0,0,0,0,1,0,0,0,1,0,0,1,1,0,0,0,0,1,0,83,"eng",1,0,0,0,0,0,0,1,NA,NA,1,0,1,NA,0,0,0,0,0,1,NA,0,0,0,0,0,0,1,0,1,0,1,0,1,0,1,"eng","prot_catch_trial","triplet65","orderSI=91","orderAI=57","0:3.2","57;",1,0,NA,"A","Z_F","veronique_fr_52","maureen_eng_50","jeremy_eng_50","veronique","maureen","jeremy","E","AE","AE","AE","E","ZEF","ZAEF","ZAEF","A",1
"41","X_BXDUYGLTPI","eng","0:22.2",1,0,0,0,0,0,0,0,0,1,0,0,0,1,0,0,1,1,0,0,0,0,1,0,83,"eng",1,0,0,0,0,0,0,1,NA,NA,1,0,1,NA,0,0,0,0,0,1,NA,0,0,0,0,0,0,1,0,1,0,1,0,1,0,1,"eng","prot_catch_trial","triplet98","orderSI=90","orderAI=58","0:3.5","58;",0,1,NA,"B","Z_S","veronique_eng_20","maureen_fr_116","marc_fr_107","veronique","maureen","marc","UH","Y","Y","UH","Y","ZUHS","ZYS","ZYS","B",1
"42","X_BXDUYGLTPI","eng","0:22.2",1,0,0,0,0,0,0,0,0,1,0,0,0,1,0,0,1,1,0,0,0,0,1,0,83,"eng",1,0,0,0,0,0,0,1,NA,NA,1,0,1,NA,0,0,0,0,0,1,NA,0,0,0,0,0,0,1,0,1,0,1,0,1,0,1,"eng","prot_catch_trial","triplet41","orderSI=66","orderAI=59","0:4.8","59;",1,0,NA,"A","V_Z","veronique_fr_145","maureen_eng_54","ewan_eng_61","veronique","maureen","ewan","OE","AE","AE","AE","OE","VOEZ","VAEZ","VAEZ","A",1
"43","X_BXDUYGLTPI","eng","0:22.2",1,0,0,0,0,0,0,0,0,1,0,0,0,1,0,0,1,1,0,0,0,0,1,0,83,"eng",1,0,0,0,0,0,0,1,NA,NA,1,0,1,NA,0,0,0,0,0,1,NA,0,0,0,0,0,0,1,0,1,0,1,0,1,0,1,"eng","prot_catch_trial","triplet51","orderSI=57","orderAI=60","0:3.0","60;",0,1,NA,"B","Z_F","veronique_fr_21","maureen_eng_50","ewan_eng_51","veronique","maureen","ewan","U","AE","AE","AE","U","ZUF","ZAEF","ZAEF","B",1
"44","X_BXDUYGLTPI","eng","0:22.2",1,0,0,0,0,0,0,0,0,1,0,0,0,1,0,0,1,1,0,0,0,0,1,0,83,"eng",1,0,0,0,0,0,0,1,NA,NA,1,0,1,NA,0,0,0,0,0,1,NA,0,0,0,0,0,0,1,0,1,0,1,0,1,0,1,"eng","prot_catch_trial","triplet100","orderSI=82","orderAI=61","0:3.2","61;",1,0,NA,"A","Z_G","maureen_eng_3","veronique_fr_207","marc_fr_207","maureen","veronique","marc","UH","A","A","UH","A","ZUHG","ZAG","ZAG","A",1
"45","X_BXDUYGLTPI","eng","0:22.2",1,0,0,0,0,0,0,0,0,1,0,0,0,1,0,0,1,1,0,0,0,0,1,0,83,"eng",1,0,0,0,0,0,0,1,NA,NA,1,0,1,NA,0,0,0,0,0,1,NA,0,0,0,0,0,0,1,0,1,0,1,0,1,0,1,"eng","prot_catch_trial","triplet45","orderSI=60","orderAI=62","0:3.2","62;",0,1,NA,"A","V_G","maureen_fr_16","veronique_eng_16","jeremy_eng_16","maureen","veronique","jeremy","U","UH","UH","UH","U","VUG","VUHG","VUHG","B",0
"46","X_BXDUYGLTPI","eng","0:22.2",1,0,0,0,0,0,0,0,0,1,0,0,0,1,0,0,1,1,0,0,0,0,1,0,83,"eng",1,0,0,0,0,0,0,1,NA,NA,1,0,1,NA,0,0,0,0,0,1,NA,0,0,0,0,0,0,1,0,1,0,1,0,1,0,1,"eng","prot_catch_trial","triplet102","orderSI=67","orderAI=63","0:3.0","63;",0,1,NA,"B","V_B","maureen_eng_227","veronique_fr_204","marc_fr_204","maureen","veronique","marc","IH","O","O","IH","O","VIHB","VOB","VOB","B",1
"47","X_BXDUYGLTPI","eng","0:22.2",1,0,0,0,0,0,0,0,0,1,0,0,0,1,0,0,1,1,0,0,0,0,1,0,83,"eng",1,0,0,0,0,0,0,1,NA,NA,1,0,1,NA,0,0,0,0,0,1,NA,0,0,0,0,0,0,1,0,1,0,1,0,1,0,1,"eng","prot_catch_trial","triplet92","orderSI=61","orderAI=64","0:3.7","64;",1,0,NA,"A","Z_B","veronique_eng_64","maureen_fr_39","marc_fr_34","veronique","maureen","marc","AH","E","E","AH","E","ZAHB","ZEB","ZEB","A",1
"48","X_BXDUYGLTPI","eng","0:22.2",1,0,0,0,0,0,0,0,0,1,0,0,0,1,0,0,1,1,0,0,0,0,1,0,83,"eng",1,0,0,0,0,0,0,1,NA,NA,1,0,1,NA,0,0,0,0,0,1,NA,0,0,0,0,0,0,1,0,1,0,1,0,1,0,1,"eng","prot_catch_trial","triplet97","orderSI=73","orderAI=65","0:3.3","65;",1,0,NA,"A","V_P","maureen_fr_217","veronique_eng_40","jeremy_eng_43","maureen","veronique","jeremy","O","AE","AE","AE","O","VOP","VAEP","VAEP","A",1
"49","X_BXDUYGLTPI","eng","0:22.2",1,0,0,0,0,0,0,0,0,1,0,0,0,1,0,0,1,1,0,0,0,0,1,0,83,"eng",1,0,0,0,0,0,0,1,NA,NA,1,0,1,NA,0,0,0,0,0,1,NA,0,0,0,0,0,0,1,0,1,0,1,0,1,0,1,"eng","prot_catch_trial","triplet42","orderSI=79","orderAI=66","0:3.1","66;",0,1,NA,"B","V_SH","maureen_eng_236","veronique_fr_64","remi_fr_65","maureen","veronique","remi","IH","E","E","IH","E","VIHSH","VESH","VESH","B",1
"50","X_BXDUYGLTPI","eng","0:22.2",1,0,0,0,0,0,0,0,0,1,0,0,0,1,0,0,1,1,0,0,0,0,1,0,83,"eng",1,0,0,0,0,0,0,1,NA,NA,1,0,1,NA,0,0,0,0,0,1,NA,0,0,0,0,0,0,1,0,1,0,1,0,1,0,1,"eng","prot_catch_trial","triplet43","orderSI=80","orderAI=67","0:4.4","67;",1,0,NA,"B","V_G","maureen_fr_81","veronique_eng_215","jeremy_eng_226","maureen","veronique","jeremy","I","IH","IH","IH","I","VIG","VIHG","VIHG","A",0
"51","X_BXDUYGLTPI","eng","0:22.2",1,0,0,0,0,0,0,0,0,1,0,0,0,1,0,0,1,1,0,0,0,0,1,0,83,"eng",1,0,0,0,0,0,0,1,NA,NA,1,0,1,NA,0,0,0,0,0,1,NA,0,0,0,0,0,0,1,0,1,0,1,0,1,0,1,"eng","prot_catch_trial","triplet82","orderSI=63","orderAI=69","0:3.7","69;",1,0,NA,"B","Z_F","veronique_eng_104","maureen_fr_157","marc_fr_145","veronique","maureen","marc","AH","O","O","AH","O","ZAHF","ZOF","ZOF","A",0
"52","X_BXDUYGLTPI","eng","0:22.2",1,0,0,0,0,0,0,0,0,1,0,0,0,1,0,0,1,1,0,0,0,0,1,0,83,"eng",1,0,0,0,0,0,0,1,NA,NA,1,0,1,NA,0,0,0,0,0,1,NA,0,0,0,0,0,0,1,0,1,0,1,0,1,0,1,"eng","prot_catch_trial","triplet86","orderSI=62","orderAI=70","0:2.8","70;",0,1,NA,"B","V_P","maureen_eng_14","veronique_fr_44","marc_fr_40","maureen","veronique","marc","UH","E","E","UH","E","VUHP","VEP","VEP","B",1
"53","X_BXDUYGLTPI","eng","0:22.2",1,0,0,0,0,0,0,0,0,1,0,0,0,1,0,0,1,1,0,0,0,0,1,0,83,"eng",1,0,0,0,0,0,0,1,NA,NA,1,0,1,NA,0,0,0,0,0,1,NA,0,0,0,0,0,0,1,0,1,0,1,0,1,0,1,"eng","prot_catch_trial","triplet57","orderSI=81","orderAI=71","0:3.3","71;",1,0,NA,"A","Z_D","veronique_fr_83","maureen_eng_68","ewan_eng_69","veronique","maureen","ewan","Y","AH","AH","AH","Y","ZYD","ZAHD","ZAHD","A",1
"54","X_BXDUYGLTPI","eng","0:22.2",1,0,0,0,0,0,0,0,0,1,0,0,0,1,0,0,1,1,0,0,0,0,1,0,83,"eng",1,0,0,0,0,0,0,1,NA,NA,1,0,1,NA,0,0,0,0,0,1,NA,0,0,0,0,0,0,1,0,1,0,1,0,1,0,1,"eng","prot_catch_trial","triplet80","orderSI=83","orderAI=72","0:3.5","72;",1,0,NA,"A","Z_D","maureen_eng_5","veronique_fr_40","marc_fr_35","maureen","veronique","marc","UH","E","E","UH","E","ZUHD","ZED","ZED","A",1
"55","X_BXDUYGLTPI","eng","0:22.2",1,0,0,0,0,0,0,0,0,1,0,0,0,1,0,0,1,1,0,0,0,0,1,0,83,"eng",1,0,0,0,0,0,0,1,NA,NA,1,0,1,NA,0,0,0,0,0,1,NA,0,0,0,0,0,0,1,0,1,0,1,0,1,0,1,"eng","prot_catch_trial","triplet94","orderSI=84","orderAI=73","0:2.9","73;",0,1,NA,"B","Z_D","maureen_eng_216","veronique_fr_69","marc_fr_66","maureen","veronique","marc","IH","I","I","IH","I","ZIHD","ZID","ZID","B",1
"56","X_BXDUYGLTPI","eng","0:22.2",1,0,0,0,0,0,0,0,0,1,0,0,0,1,0,0,1,1,0,0,0,0,1,0,83,"eng",1,0,0,0,0,0,0,1,NA,NA,1,0,1,NA,0,0,0,0,0,1,NA,0,0,0,0,0,0,1,0,1,0,1,0,1,0,1,"eng","prot_catch_trial","triplet66","orderSI=87","orderAI=74","0:3.4","74;",1,0,NA,"B","S_G","veronique_eng_6","maureen_fr_204","marc_fr_198","veronique","maureen","marc","UH","O","O","UH","O","SUHG","SOG","SOG","A",0
"57","X_BXDUYGLTPI","eng","0:22.2",1,0,0,0,0,0,0,0,0,1,0,0,0,1,0,0,1,1,0,0,0,0,1,0,83,"eng",1,0,0,0,0,0,0,1,NA,NA,1,0,1,NA,0,0,0,0,0,1,NA,0,0,0,0,0,0,1,0,1,0,1,0,1,0,1,"eng","prot_catch_trial","triplet67","orderSI=88","orderAI=75","0:3.4","75;",0,1,NA,"B","V_B","maureen_fr_82","veronique_eng_17","ewan_eng_17","maureen","veronique","ewan","I","UH","UH","UH","I","VIB","VUHB","VUHB","B",1
"58","X_BXDUYGLTPI","eng","0:22.2",1,0,0,0,0,0,0,0,0,1,0,0,0,1,0,0,1,1,0,0,0,0,1,0,83,"eng",1,0,0,0,0,0,0,1,NA,NA,1,0,1,NA,0,0,0,0,0,1,NA,0,0,0,0,0,0,1,0,1,0,1,0,1,0,1,"eng","prot_catch_trial","triplet56","orderSI=77","orderAI=76","0:3.1","76;",0,1,NA,"A","F_P","veronique_eng_8","maureen_fr_205","marc_fr_199","veronique","maureen","marc","UH","O","O","UH","O","FUHP","FOP","FOP","B",0
"59","X_BXDUYGLTPI","eng","0:22.2",1,0,0,0,0,0,0,0,0,1,0,0,0,1,0,0,1,1,0,0,0,0,1,0,83,"eng",1,0,0,0,0,0,0,1,NA,NA,1,0,1,NA,0,0,0,0,0,1,NA,0,0,0,0,0,0,1,0,1,0,1,0,1,0,1,"eng","prot_catch_trial","triplet103","orderSI=69","orderAI=77","0:4.8","77;",0,1,NA,"B","Z_G","maureen_fr_219","veronique_eng_203","ewan_eng_220","maureen","veronique","ewan","A","IH","IH","IH","A","ZAG","ZIHG","ZIHG","B",1
"60","X_BXDUYGLTPI","eng","0:22.2",1,0,0,0,0,0,0,0,0,1,0,0,0,1,0,0,1,1,0,0,0,0,1,0,83,"eng",1,0,0,0,0,0,0,1,NA,NA,1,0,1,NA,0,0,0,0,0,1,NA,0,0,0,0,0,0,1,0,1,0,1,0,1,0,1,"eng","prot_catch_trial","triplet99","orderSI=85","orderAI=78","0:3.2","78;",0,1,NA,"B","Z_B","maureen_fr_73","veronique_eng_35","ewan_eng_38","maureen","veronique","ewan","I","AE","AE","AE","I","ZIB","ZAEB","ZAEB","B",1
"61","X_BXDUYGLTPI","eng","0:22.2",1,0,0,0,0,0,0,0,0,1,0,0,0,1,0,0,1,1,0,0,0,0,1,0,83,"eng",1,0,0,0,0,0,0,1,NA,NA,1,0,1,NA,0,0,0,0,0,1,NA,0,0,0,0,0,0,1,0,1,0,1,0,1,0,1,"eng","prot_catch_trial","triplet96","orderSI=64","orderAI=79","0:3.1","79;",1,0,NA,"A","V_SH","veronique_eng_101","maureen_fr_114","remi_fr_109","veronique","maureen","remi","AH","I","I","AH","I","VAHSH","VISH","VISH","A",1
"62","X_BXDUYGLTPI","eng","0:22.2",1,0,0,0,0,0,0,0,0,1,0,0,0,1,0,0,1,1,0,0,0,0,1,0,83,"eng",1,0,0,0,0,0,0,1,NA,NA,1,0,1,NA,0,0,0,0,0,1,NA,0,0,0,0,0,0,1,0,1,0,1,0,1,0,1,"eng","prot_catch_trial","triplet71","orderSI=92","orderAI=80","0:3.1","80;",1,0,NA,"B","V_K","veronique_fr_46","maureen_eng_44","jeremy_eng_44","veronique","maureen","jeremy","E","AE","AE","AE","E","VEK","VAEK","VAEK","A",0
"63","X_BXDUYGLTPI","eng","0:22.2",1,0,0,0,0,0,0,0,0,1,0,0,0,1,0,0,1,1,0,0,0,0,1,0,83,"eng",1,0,0,0,0,0,0,1,NA,NA,1,0,1,NA,0,0,0,0,0,1,NA,0,0,0,0,0,0,1,0,1,0,1,0,1,0,1,"eng","prot_catch_trial","triplet83","orderSI=74","orderAI=81","0:3.8","81;",1,0,NA,"B","V_B","veronique_fr_204","maureen_eng_77","jeremy_eng_75","veronique","maureen","jeremy","O","AH","AH","AH","O","VOB","VAHB","VAHB","A",0
"64","X_BXDUYGLTPI","eng","0:22.2",1,0,0,0,0,0,0,0,0,1,0,0,0,1,0,0,1,1,0,0,0,0,1,0,83,"eng",1,0,0,0,0,0,0,1,NA,NA,1,0,1,NA,0,0,0,0,0,1,NA,0,0,0,0,0,0,1,0,1,0,1,0,1,0,1,"eng","prot_catch_trial","triplet55","orderSI=68","orderAI=82","0:3.8","82;",0,1,NA,"B","V_K","maureen_fr_15","veronique_eng_72","jeremy_eng_74","maureen","veronique","jeremy","U","AH","AH","AH","U","VUK","VAHK","VAHK","B",1
"65","X_BXDUYGLTPI","eng","0:22.2",1,0,0,0,0,0,0,0,0,1,0,0,0,1,0,0,1,1,0,0,0,0,1,0,83,"eng",1,0,0,0,0,0,0,1,NA,NA,1,0,1,NA,0,0,0,0,0,1,NA,0,0,0,0,0,0,1,0,1,0,1,0,1,0,1,"eng","prot_catch_trial","triplet101","orderSI=78","orderAI=83","0:3.1","83;",1,0,NA,"A","Z_V","veronique_fr_164","maureen_eng_100","ewan_eng_101","veronique","maureen","ewan","A","AH","AH","AH","A","ZAV","ZAHV","ZAHV","A",1
"66","X_BXDUYGLTPI","eng","0:22.2",1,0,0,0,0,0,0,0,0,1,0,0,0,1,0,0,1,1,0,0,0,0,1,0,83,"eng",1,0,0,0,0,0,0,1,NA,NA,1,0,1,NA,0,0,0,0,0,1,NA,0,0,0,0,0,0,1,0,1,0,1,0,1,0,1,"eng","prot_catch_trial","triplet69","orderSI=65","orderAI=84","0:3.2","84;",1,0,NA,"A","Z_S","veronique_fr_99","maureen_eng_49","ewan_eng_50","veronique","maureen","ewan","I","AE","AE","AE","I","ZIS","ZAES","ZAES","A",1
"67","X_BXDUYGLTPI","eng","0:22.2",1,0,0,0,0,0,0,0,0,1,0,0,0,1,0,0,1,1,0,0,0,0,1,0,83,"eng",1,0,0,0,0,0,0,1,NA,NA,1,0,1,NA,0,0,0,0,0,1,NA,0,0,0,0,0,0,1,0,1,0,1,0,1,0,1,"eng","prot_catch_trial","triplet79","orderSI=56","orderAI=85","0:3.2","85;",1,0,NA,"B","SH_V","veronique_fr_124","maureen_eng_32","ewan_eng_32","veronique","maureen","ewan","Y","UH","UH","UH","Y","SHYV","SHUHV","SHUHV","A",0
"68","X_BXDUYGLTPI","eng","0:22.2",1,0,0,0,0,0,0,0,0,1,0,0,0,1,0,0,1,1,0,0,0,0,1,0,83,"eng",1,0,0,0,0,0,0,1,NA,NA,1,0,1,NA,0,0,0,0,0,1,NA,0,0,0,0,0,0,1,0,1,0,1,0,1,0,1,"eng","prot_catch_trial","triplet95","orderSI=75","orderAI=86","0:3.4","86;",0,1,NA,"B","Z_SH","veronique_fr_150","maureen_eng_231","ewan_eng_237","veronique","maureen","ewan","O","IH","IH","IH","O","ZOSH","ZIHSH","ZIHSH","B",1
"69","X_BXDUYGLTPI","eng","0:22.2",1,0,0,0,0,0,0,0,0,1,0,0,0,1,0,0,1,1,0,0,0,0,1,0,83,"eng",1,0,0,0,0,0,0,1,NA,NA,1,0,1,NA,0,0,0,0,0,1,NA,0,0,0,0,0,0,1,0,1,0,1,0,1,0,1,"eng","prot_catch_trial","triplet40","orderSI=71","orderAI=87","0:3.4","87;",0,1,NA,"A","Z_V","maureen_eng_52","veronique_fr_151","remi_fr_150","maureen","veronique","remi","AE","O","O","AE","O","ZAEV","ZOV","ZOV","B",0
"70","X_BXDUYGLTPI","eng","0:22.2",1,0,0,0,0,0,0,0,0,1,0,0,0,1,0,0,1,1,0,0,0,0,1,0,83,"eng",1,0,0,0,0,0,0,1,NA,NA,1,0,1,NA,0,0,0,0,0,1,NA,0,0,0,0,0,0,1,0,1,0,1,0,1,0,1,"eng","prot_catch_trial","triplet112","orderSI=59","orderAI=88","0:2.9","88;",1,0,NA,"A","V_F","maureen_eng_121","veronique_fr_159","remi_fr_158","maureen","veronique","remi","AH","O","O","AH","O","VAHF","VOF","VOF","A",1
"71","X_BXDUYGLTPI","eng","0:22.2",1,0,0,0,0,0,0,0,0,1,0,0,0,1,0,0,1,1,0,0,0,0,1,0,83,"eng",1,0,0,0,0,0,0,1,NA,NA,1,0,1,NA,0,0,0,0,0,1,NA,0,0,0,0,0,0,1,0,1,0,1,0,1,0,1,"eng","prot_catch_trial","triplet54","orderSI=70","orderAI=89","0:3.0","89;",0,1,NA,"B","Z_V","veronique_eng_49","maureen_fr_106","marc_fr_97","veronique","maureen","marc","AE","I","I","AE","I","ZAEV","ZIV","ZIV","B",1
"72","X_BXDUYGLTPI","eng","0:22.2",1,0,0,0,0,0,0,0,0,1,0,0,0,1,0,0,1,1,0,0,0,0,1,0,83,"eng",1,0,0,0,0,0,0,1,NA,NA,1,0,1,NA,0,0,0,0,0,1,NA,0,0,0,0,0,0,1,0,1,0,1,0,1,0,1,"eng","prot_catch_trial","triplet106","orderSI=58","orderAI=90","0:3.2","90;",0,1,NA,"B","Z_SH","maureen_eng_22","veronique_fr_133","remi_fr_132","maureen","veronique","remi","UH","OE","OE","UH","OE","ZUHSH","ZOESH","ZOESH","B",1
"73","X_BXDUYGLTPI","eng","0:22.2",1,0,0,0,0,0,0,0,0,1,0,0,0,1,0,0,1,1,0,0,0,0,1,0,83,"eng",1,0,0,0,0,0,0,1,NA,NA,1,0,1,NA,0,0,0,0,0,1,NA,0,0,0,0,0,0,1,0,1,0,1,0,1,0,1,"eng","prot_catch_trial","triplet68","orderSI=72","orderAI=91","0:2.9","91;",1,0,NA,"A","Z_S","maureen_eng_49","veronique_fr_20","marc_fr_15","maureen","veronique","marc","AE","U","U","AE","U","ZAES","ZUS","ZUS","A",1
"74","X_BXDUYGLTPI","eng","0:22.2",1,0,0,0,0,0,0,0,0,1,0,0,0,1,0,0,1,1,0,0,0,0,1,0,83,"eng",1,0,0,0,0,0,0,1,NA,NA,1,0,1,NA,0,0,0,0,0,1,NA,0,0,0,0,0,0,1,0,1,0,1,0,1,0,1,"eng","prot_catch_trial","triplet73","orderSI=89","orderAI=92","0:3.1","92;",1,0,NA,"A","V_F","maureen_fr_179","veronique_eng_32","ewan_eng_35","maureen","veronique","ewan","A","UH","UH","UH","A","VAF","VUHF","VUHF","A",1
"75","X_BXDUYGLTPI","eng","0:22.2",1,0,0,0,0,0,0,0,0,1,0,0,0,1,0,0,1,1,0,0,0,0,1,0,83,"eng",1,0,0,0,0,0,0,1,NA,NA,1,0,1,NA,0,0,0,0,0,1,NA,0,0,0,0,0,0,1,0,1,0,1,0,1,0,1,"eng","prot_catch_trial","triplet81","orderSI=76","orderAI=93","0:3.1","93;",1,0,NA,"A","V_B","maureen_fr_52","veronique_eng_216","ewan_eng_233","maureen","veronique","ewan","E","IH","IH","IH","E","VEB","VIHB","VIHB","A",1
"76","X_BXDUYGLTPI","eng","0:22.2",1,0,0,0,0,0,0,0,0,1,0,0,0,1,0,0,1,1,0,0,0,0,1,0,83,"eng",1,0,0,0,0,0,0,1,NA,NA,1,0,1,NA,0,0,0,0,0,1,NA,0,0,0,0,0,0,1,0,1,0,1,0,1,0,1,"eng","prot_catch_trial","triplet72","orderSI=86","orderAI=94","0:3.0","94;",1,0,NA,"A","S_F","veronique_eng_24","maureen_fr_26","remi_fr_25","veronique","maureen","remi","UH","U","U","UH","U","SUHF","SUF","SUF","A",1
"77","X_BXDUYGLTPI","eng","0:22.2",1,0,0,0,0,0,0,0,0,1,0,0,0,1,0,0,1,1,0,0,0,0,1,0,83,"eng",1,0,0,0,0,0,0,1,NA,NA,1,0,1,NA,0,0,0,0,0,1,NA,0,0,0,0,0,0,1,0,1,0,1,0,1,0,1,"eng","prot_catch_trial","triplet60","orderSI=100","orderAI=96","0:3.4","96;",1,0,NA,"A","V_P","veronique_eng_86","maureen_fr_96","remi_fr_91","veronique","maureen","remi","AH","Y","Y","AH","Y","VAHP","VYP","VYP","A",1
"78","X_BXDUYGLTPI","eng","0:22.2",1,0,0,0,0,0,0,0,0,1,0,0,0,1,0,0,1,1,0,0,0,0,1,0,83,"eng",1,0,0,0,0,0,0,1,NA,NA,1,0,1,NA,0,0,0,0,0,1,NA,0,0,0,0,0,0,1,0,1,0,1,0,1,0,1,"eng","prot_catch_trial","triplet77","orderSI=107","orderAI=97","0:3.3","97;",1,0,NA,"A","Z_V","maureen_fr_106","veronique_eng_221","jeremy_eng_232","maureen","veronique","jeremy","I","IH","IH","IH","I","ZIV","ZIHV","ZIHV","A",1
"79","X_BXDUYGLTPI","eng","0:22.2",1,0,0,0,0,0,0,0,0,1,0,0,0,1,0,0,1,1,0,0,0,0,1,0,83,"eng",1,0,0,0,0,0,0,1,NA,NA,1,0,1,NA,0,0,0,0,0,1,NA,0,0,0,0,0,0,1,0,1,0,1,0,1,0,1,"eng","prot_catch_trial","triplet58","orderSI=96","orderAI=98","0:3.1","98;",0,1,NA,"B","V_G","maureen_eng_76","veronique_fr_16","marc_fr_11","maureen","veronique","marc","AH","U","U","AH","U","VAHG","VUG","VUG","B",1
"80","X_BXDUYGLTPI","eng","0:22.2",1,0,0,0,0,0,0,0,0,1,0,0,0,1,0,0,1,1,0,0,0,0,1,0,83,"eng",1,0,0,0,0,0,0,1,NA,NA,1,0,1,NA,0,0,0,0,0,1,NA,0,0,0,0,0,0,1,0,1,0,1,0,1,0,1,"eng","prot_catch_trial","triplet12","orderSI=120","orderAI=99","0:3.9","99;",1,0,NA,"A","SH_V","maureen_eng_59","veronique_fr_144","marc_fr_139","maureen","veronique","marc","AE","OE","OE","AE","OE","SHAEV","SHOEV","SHOEV","A",1
"81","X_BXDUYGLTPI","eng","0:22.2",1,0,0,0,0,0,0,0,0,1,0,0,0,1,0,0,1,1,0,0,0,0,1,0,83,"eng",1,0,0,0,0,0,0,1,NA,NA,1,0,1,NA,0,0,0,0,0,1,NA,0,0,0,0,0,0,1,0,1,0,1,0,1,0,1,"eng","prot_catch_trial","triplet2","orderSI=126","orderAI=100","0:2.9","100;",1,0,NA,"B","V_B","maureen_eng_46","veronique_fr_215","remi_fr_216","maureen","veronique","remi","AE","A","A","AE","A","VAEB","VAB","VAB","A",0
"82","X_BXDUYGLTPI","eng","0:22.2",1,0,0,0,0,0,0,0,0,1,0,0,0,1,0,0,1,1,0,0,0,0,1,0,83,"eng",1,0,0,0,0,0,0,1,NA,NA,1,0,1,NA,0,0,0,0,0,1,NA,0,0,0,0,0,0,1,0,1,0,1,0,1,0,1,"eng","prot_catch_trial","triplet38","orderSI=116","orderAI=101","0:2.9","101;",0,1,NA,"B","Z_G","maureen_eng_66","veronique_fr_67","marc_fr_64","maureen","veronique","marc","AH","I","I","AH","I","ZAHG","ZIG","ZIG","B",1
"83","X_BXDUYGLTPI","eng","0:22.2",1,0,0,0,0,0,0,0,0,1,0,0,0,1,0,0,1,1,0,0,0,0,1,0,83,"eng",1,0,0,0,0,0,0,1,NA,NA,1,0,1,NA,0,0,0,0,0,1,NA,0,0,0,0,0,0,1,0,1,0,1,0,1,0,1,"eng","prot_catch_trial","triplet10","orderSI=117","orderAI=102","0:3.5","102;",0,1,NA,"B","SH_V","veronique_eng_29","maureen_fr_177","remi_fr_168","veronique","maureen","remi","UH","A","A","UH","A","SHUHV","SHAV","SHAV","B",1
"84","X_BXDUYGLTPI","eng","0:22.2",1,0,0,0,0,0,0,0,0,1,0,0,0,1,0,0,1,1,0,0,0,0,1,0,83,"eng",1,0,0,0,0,0,0,1,NA,NA,1,0,1,NA,0,0,0,0,0,1,NA,0,0,0,0,0,0,1,0,1,0,1,0,1,0,1,"eng","prot_catch_trial","triplet6","orderSI=119","orderAI=103","0:3.7","103;",0,1,NA,"B","V_K","veronique_eng_214","maureen_fr_196","remi_fr_190","veronique","maureen","remi","IH","OE","OE","IH","OE","VIHK","VOEK","VOEK","B",1
"85","X_BXDUYGLTPI","eng","0:22.2",1,0,0,0,0,0,0,0,0,1,0,0,0,1,0,0,1,1,0,0,0,0,1,0,83,"eng",1,0,0,0,0,0,0,1,NA,NA,1,0,1,NA,0,0,0,0,0,1,NA,0,0,0,0,0,0,1,0,1,0,1,0,1,0,1,"eng","prot_catch_trial","triplet14","orderSI=128","orderAI=104","0:3.2","104;",0,1,NA,"B","Z_D","veronique_eng_5","maureen_fr_5","remi_fr_5","veronique","maureen","remi","UH","U","U","UH","U","ZUHD","ZUD","ZUD","B",1
"86","X_BXDUYGLTPI","eng","0:22.2",1,0,0,0,0,0,0,0,0,1,0,0,0,1,0,0,1,1,0,0,0,0,1,0,83,"eng",1,0,0,0,0,0,0,1,NA,NA,1,0,1,NA,0,0,0,0,0,1,NA,0,0,0,0,0,0,1,0,1,0,1,0,1,0,1,"eng","prot_catch_trial","triplet15","orderSI=129","orderAI=105","0:4.0","105;",0,1,NA,"B","Z_D","maureen_fr_203","veronique_eng_36","ewan_eng_39","maureen","veronique","ewan","O","AE","AE","AE","O","ZOD","ZAED","ZAED","B",1
"87","X_BXDUYGLTPI","eng","0:22.2",1,0,0,0,0,0,0,0,0,1,0,0,0,1,0,0,1,1,0,0,0,0,1,0,83,"eng",1,0,0,0,0,0,0,1,NA,NA,1,0,1,NA,0,0,0,0,0,1,NA,0,0,0,0,0,0,1,0,1,0,1,0,1,0,1,"eng","prot_catch_trial","triplet108","orderSI=106","orderAI=106","0:3.3","106;",1,0,NA,"A","V_G","maureen_eng_45","veronique_fr_95","remi_fr_94","maureen","veronique","remi","AE","Y","Y","AE","Y","VAEG","VYG","VYG","A",1
"88","X_BXDUYGLTPI","eng","0:22.2",1,0,0,0,0,0,0,0,0,1,0,0,0,1,0,0,1,1,0,0,0,0,1,0,83,"eng",1,0,0,0,0,0,0,1,NA,NA,1,0,1,NA,0,0,0,0,0,1,NA,0,0,0,0,0,0,1,0,1,0,1,0,1,0,1,"eng","prot_catch_trial","triplet62","orderSI=109","orderAI=107","0:3.5","107;",0,1,NA,"B","V_Z","maureen_eng_54","veronique_fr_157","remi_fr_156","maureen","veronique","remi","AE","O","O","AE","O","VAEZ","VOZ","VOZ","B",1
"89","X_BXDUYGLTPI","eng","0:22.2",1,0,0,0,0,0,0,0,0,1,0,0,0,1,0,0,1,1,0,0,0,0,1,0,83,"eng",1,0,0,0,0,0,0,1,NA,NA,1,0,1,NA,0,0,0,0,0,1,NA,0,0,0,0,0,0,1,0,1,0,1,0,1,0,1,"eng","prot_catch_trial","triplet64","orderSI=98","orderAI=108","0:3.0","108;",1,0,NA,"A","V_B","maureen_eng_227","veronique_fr_215","marc_fr_215","maureen","veronique","marc","IH","A","A","IH","A","VIHB","VAB","VAB","A",1
"90","X_BXDUYGLTPI","eng","0:22.2",1,0,0,0,0,0,0,0,0,1,0,0,0,1,0,0,1,1,0,0,0,0,1,0,83,"eng",1,0,0,0,0,0,0,1,NA,NA,1,0,1,NA,0,0,0,0,0,1,NA,0,0,0,0,0,0,1,0,1,0,1,0,1,0,1,"eng","prot_catch_trial","triplet17","orderSI=124","orderAI=109","0:3.6","109;",1,0,NA,"A","Z_SH","maureen_fr_22","veronique_eng_94","jeremy_eng_97","maureen","veronique","jeremy","U","AH","AH","AH","U","ZUSH","ZAHSH","ZAHSH","A",1
"91","X_BXDUYGLTPI","eng","0:22.2",1,0,0,0,0,0,0,0,0,1,0,0,0,1,0,0,1,1,0,0,0,0,1,0,83,"eng",1,0,0,0,0,0,0,1,NA,NA,1,0,1,NA,0,0,0,0,0,1,NA,0,0,0,0,0,0,1,0,1,0,1,0,1,0,1,"eng","prot_catch_trial","triplet76","orderSI=110","orderAI=110","0:4.2","110;",1,0,NA,"A","SH_B","veronique_eng_38","maureen_fr_224","marc_fr_212","veronique","maureen","marc","AE","A","A","AE","A","SHAEB","SHAB","SHAB","A",1
"92","X_BXDUYGLTPI","eng","0:22.2",1,0,0,0,0,0,0,0,0,1,0,0,0,1,0,0,1,1,0,0,0,0,1,0,83,"eng",1,0,0,0,0,0,0,1,NA,NA,1,0,1,NA,0,0,0,0,0,1,NA,0,0,0,0,0,0,1,0,1,0,1,0,1,0,1,"eng","prot_catch_trial","triplet74","orderSI=101","orderAI=111","0:11.5","111;",1,0,NA,"B","V_B","maureen_eng_46","veronique_fr_17","remi_fr_17","maureen","veronique","remi","AE","U","U","AE","U","VAEB","VUB","VUB","A",0
"93","X_BXDUYGLTPI","eng","0:22.2",1,0,0,0,0,0,0,0,0,1,0,0,0,1,0,0,1,1,0,0,0,0,1,0,83,"eng",1,0,0,0,0,0,0,1,NA,NA,1,0,1,NA,0,0,0,0,0,1,NA,0,0,0,0,0,0,1,0,1,0,1,0,1,0,1,"eng","prot_catch_trial","triplet63","orderSI=108","orderAI=112","0:4.2","112;",0,1,NA,"B","Z_F","veronique_fr_132","maureen_eng_21","jeremy_eng_21","veronique","maureen","jeremy","OE","UH","UH","UH","OE","ZOEF","ZUHF","ZUHF","B",1
"94","X_BXDUYGLTPI","eng","0:22.2",1,0,0,0,0,0,0,0,0,1,0,0,0,1,0,0,1,1,0,0,0,0,1,0,83,"eng",1,0,0,0,0,0,0,1,NA,NA,1,0,1,NA,0,0,0,0,0,1,NA,0,0,0,0,0,0,1,0,1,0,1,0,1,0,1,"eng","prot_catch_trial","triplet28","orderSI=127","orderAI=113","0:5.5","113;",1,0,NA,"A","Z_F","veronique_eng_219","maureen_fr_157","remi_fr_148","veronique","maureen","remi","IH","O","O","IH","O","ZIHF","ZOF","ZOF","A",1
"95","X_BXDUYGLTPI","eng","0:22.2",1,0,0,0,0,0,0,0,0,1,0,0,0,1,0,0,1,1,0,0,0,0,1,0,83,"eng",1,0,0,0,0,0,0,1,NA,NA,1,0,1,NA,0,0,0,0,0,1,NA,0,0,0,0,0,0,1,0,1,0,1,0,1,0,1,"eng","prot_catch_trial","triplet29","orderSI=130","orderAI=114","0:3.8","114;",1,0,NA,"A","F_P","veronique_fr_181","maureen_eng_71","ewan_eng_72","veronique","maureen","ewan","OE","AH","AH","AH","OE","FOEP","FAHP","FAHP","A",1
"96","X_BXDUYGLTPI","eng","0:22.2",1,0,0,0,0,0,0,0,0,1,0,0,0,1,0,0,1,1,0,0,0,0,1,0,83,"eng",1,0,0,0,0,0,0,1,NA,NA,1,0,1,NA,0,0,0,0,0,1,NA,0,0,0,0,0,0,1,0,1,0,1,0,1,0,1,"eng","prot_catch_trial","triplet5","orderSI=113","orderAI=115","0:3.8","115;",0,1,NA,"A","S_G","veronique_fr_6","maureen_eng_217","ewan_eng_223","veronique","maureen","ewan","U","IH","IH","IH","U","SUG","SIHG","SIHG","B",0
"97","X_BXDUYGLTPI","eng","0:22.2",1,0,0,0,0,0,0,0,0,1,0,0,0,1,0,0,1,1,0,0,0,0,1,0,83,"eng",1,0,0,0,0,0,0,1,NA,NA,1,0,1,NA,0,0,0,0,0,1,NA,0,0,0,0,0,0,1,0,1,0,1,0,1,0,1,"eng","prot_catch_trial","triplet39","orderSI=115","orderAI=116","0:3.0","116;",1,0,NA,"B","V_P","veronique_fr_14","maureen_eng_14","ewan_eng_14","veronique","maureen","ewan","U","UH","UH","UH","U","VUP","VUHP","VUHP","A",0
"98","X_BXDUYGLTPI","eng","0:22.2",1,0,0,0,0,0,0,0,0,1,0,0,0,1,0,0,1,1,0,0,0,0,1,0,83,"eng",1,0,0,0,0,0,0,1,NA,NA,1,0,1,NA,0,0,0,0,0,1,NA,0,0,0,0,0,0,1,0,1,0,1,0,1,0,1,"eng","prot_catch_trial","triplet1","orderSI=131","orderAI=117","0:3.2","117;",1,0,NA,"A","Z_F","veronique_fr_52","maureen_eng_21","jeremy_eng_21","veronique","maureen","jeremy","E","UH","UH","UH","E","ZEF","ZUHF","ZUHF","A",1
"99","X_BXDUYGLTPI","eng","0:22.2",1,0,0,0,0,0,0,0,0,1,0,0,0,1,0,0,1,1,0,0,0,0,1,0,83,"eng",1,0,0,0,0,0,0,1,NA,NA,1,0,1,NA,0,0,0,0,0,1,NA,0,0,0,0,0,0,1,0,1,0,1,0,1,0,1,"eng","prot_catch_trial","triplet61","orderSI=103","orderAI=118","0:3.3","118;",1,0,NA,"A","SH_V","maureen_fr_65","veronique_eng_115","jeremy_eng_119","maureen","veronique","jeremy","E","AH","AH","AH","E","SHEV","SHAHV","SHAHV","A",1
"100","X_BXDUYGLTPI","eng","0:22.2",1,0,0,0,0,0,0,0,0,1,0,0,0,1,0,0,1,1,0,0,0,0,1,0,83,"eng",1,0,0,0,0,0,0,1,NA,NA,1,0,1,NA,0,0,0,0,0,1,NA,0,0,0,0,0,0,1,0,1,0,1,0,1,0,1,"eng","prot_catch_trial","triplet70","orderSI=97","orderAI=119","0:3.2","119;",0,1,NA,"B","F_P","veronique_eng_68","maureen_fr_90","remi_fr_86","veronique","maureen","remi","AH","Y","Y","AH","Y","FAHP","FYP","FYP","B",1
"101","X_BXDUYGLTPI","eng","0:22.2",1,0,0,0,0,0,0,0,0,1,0,0,0,1,0,0,1,1,0,0,0,0,1,0,83,"eng",1,0,0,0,0,0,0,1,NA,NA,1,0,1,NA,0,0,0,0,0,1,NA,0,0,0,0,0,0,1,0,1,0,1,0,1,0,1,"eng","prot_catch_trial","triplet75","orderSI=102","orderAI=120","0:3.3","120;",0,1,NA,"B","SH_B","maureen_fr_43","veronique_eng_13","ewan_eng_13","maureen","veronique","ewan","E","UH","UH","UH","E","SHEB","SHUHB","SHUHB","B",1
"102","X_BXDUYGLTPI","eng","0:22.2",1,0,0,0,0,0,0,0,0,1,0,0,0,1,0,0,1,1,0,0,0,0,1,0,83,"eng",1,0,0,0,0,0,0,1,NA,NA,1,0,1,NA,0,0,0,0,0,1,NA,0,0,0,0,0,0,1,0,1,0,1,0,1,0,1,"eng","prot_catch_trial","triplet89","orderSI=112","orderAI=121","0:2.9","121;",1,0,NA,"A","V_K","veronique_fr_203","maureen_eng_15","jeremy_eng_15","veronique","maureen","jeremy","O","UH","UH","UH","O","VOK","VUHK","VUHK","A",1
"103","X_BXDUYGLTPI","eng","0:22.2",1,0,0,0,0,0,0,0,0,1,0,0,0,1,0,0,1,1,0,0,0,0,1,0,83,"eng",1,0,0,0,0,0,0,1,NA,NA,1,0,1,NA,0,0,0,0,0,1,NA,0,0,0,0,0,0,1,0,1,0,1,0,1,0,1,"eng","prot_catch_trial","triplet4","orderSI=118","orderAI=122","0:3.7","122;",1,0,NA,"A","Z_SH","maureen_eng_231","veronique_fr_53","remi_fr_53","maureen","veronique","remi","IH","E","E","IH","E","ZIHSH","ZESH","ZESH","A",1
"104","X_BXDUYGLTPI","eng","0:22.2",1,0,0,0,0,0,0,0,0,1,0,0,0,1,0,0,1,1,0,0,0,0,1,0,83,"eng",1,0,0,0,0,0,0,1,NA,NA,1,0,1,NA,0,0,0,0,0,1,NA,0,0,0,0,0,0,1,0,1,0,1,0,1,0,1,"eng","prot_catch_trial","triplet7","orderSI=122","orderAI=123","0:4.7","123;",0,1,NA,"B","S_F","veronique_fr_166","maureen_eng_53","jeremy_eng_53","veronique","maureen","jeremy","A","AE","AE","AE","A","SAF","SAEF","SAEF","B",1
"105","X_BXDUYGLTPI","eng","0:22.2",1,0,0,0,0,0,0,0,0,1,0,0,0,1,0,0,1,1,0,0,0,0,1,0,83,"eng",1,0,0,0,0,0,0,1,NA,NA,1,0,1,NA,0,0,0,0,0,1,NA,0,0,0,0,0,0,1,0,1,0,1,0,1,0,1,"eng","prot_catch_trial","triplet16","orderSI=125","orderAI=124","0:3.1","124;",1,0,NA,"A","V_K","veronique_eng_214","maureen_fr_98","remi_fr_93","veronique","maureen","remi","IH","Y","Y","IH","Y","VIHK","VYK","VYK","A",1
"106","X_BXDUYGLTPI","eng","0:22.2",1,0,0,0,0,0,0,0,0,1,0,0,0,1,0,0,1,1,0,0,0,0,1,0,83,"eng",1,0,0,0,0,0,0,1,NA,NA,1,0,1,NA,0,0,0,0,0,1,NA,0,0,0,0,0,0,1,0,1,0,1,0,1,0,1,"eng","prot_catch_trial","triplet48","orderSI=99","orderAI=125","0:3.2","125;",0,1,NA,"A","Z_F","veronique_eng_104","maureen_fr_169","remi_fr_161","veronique","maureen","remi","AH","A","A","AH","A","ZAHF","ZAF","ZAF","B",0
"107","X_BXDUYGLTPI","eng","0:22.2",1,0,0,0,0,0,0,0,0,1,0,0,0,1,0,0,1,1,0,0,0,0,1,0,83,"eng",1,0,0,0,0,0,0,1,NA,NA,1,0,1,NA,0,0,0,0,0,1,NA,0,0,0,0,0,0,1,0,1,0,1,0,1,0,1,"eng","prot_catch_trial","triplet49","orderSI=104","orderAI=126","0:3.5","126;",1,0,NA,"A","Z_S","maureen_fr_153","veronique_eng_93","ewan_eng_98","maureen","veronique","ewan","O","AH","AH","AH","O","ZOS","ZAHS","ZAHS","A",1
"108","X_BXDUYGLTPI","eng","0:22.2",1,0,0,0,0,0,0,0,0,1,0,0,0,1,0,0,1,1,0,0,0,0,1,0,83,"eng",1,0,0,0,0,0,0,1,NA,NA,1,0,1,NA,0,0,0,0,0,1,NA,0,0,0,0,0,0,1,0,1,0,1,0,1,0,1,"eng","prot_catch_trial","triplet3","orderSI=123","orderAI=127","0:4.9","127;",0,1,NA,"B","SH_S","maureen_fr_147","veronique_eng_226","jeremy_eng_237","maureen","veronique","jeremy","OE","IH","IH","IH","OE","SHOES","SHIHS","SHIHS","B",1
"109","X_BXDUYGLTPI","eng","0:22.2",1,0,0,0,0,0,0,0,0,1,0,0,0,1,0,0,1,1,0,0,0,0,1,0,83,"eng",1,0,0,0,0,0,0,1,NA,NA,1,0,1,NA,0,0,0,0,0,1,NA,0,0,0,0,0,0,1,0,1,0,1,0,1,0,1,"eng","prot_catch_trial","triplet109","orderSI=111","orderAI=128","0:3.6","128;",1,0,NA,"A","Z_SH","maureen_fr_170","veronique_eng_48","ewan_eng_52","maureen","veronique","ewan","A","AE","AE","AE","A","ZASH","ZAESH","ZAESH","A",1
"110","X_BXDUYGLTPI","eng","0:22.2",1,0,0,0,0,0,0,0,0,1,0,0,0,1,0,0,1,1,0,0,0,0,1,0,83,"eng",1,0,0,0,0,0,0,1,NA,NA,1,0,1,NA,0,0,0,0,0,1,NA,0,0,0,0,0,0,1,0,1,0,1,0,1,0,1,"eng","prot_catch_trial","triplet11","orderSI=114","orderAI=129","0:3.8","129;",1,0,NA,"B","Z_SH","maureen_fr_118","veronique_eng_220","jeremy_eng_231","maureen","veronique","jeremy","Y","IH","IH","IH","Y","ZYSH","ZIHSH","ZIHSH","A",0
"111","X_BXDUYGLTPI","eng","0:22.2",1,0,0,0,0,0,0,0,0,1,0,0,0,1,0,0,1,1,0,0,0,0,1,0,83,"eng",1,0,0,0,0,0,0,1,NA,NA,1,0,1,NA,0,0,0,0,0,1,NA,0,0,0,0,0,0,1,0,1,0,1,0,1,0,1,"eng","prot_catch_trial","triplet88","orderSI=105","orderAI=130","0:4.3","130;",1,0,NA,"A","S_G","maureen_eng_6","veronique_fr_71","remi_fr_221","maureen","veronique","remi","UH","I","I","UH","I","SUHG","SIG","SIG","A",1
"112","X_BXDUYGLTPI","eng","0:22.2",1,0,0,0,0,0,0,0,0,1,0,0,0,1,0,0,1,1,0,0,0,0,1,0,83,"eng",1,0,0,0,0,0,0,1,NA,NA,1,0,1,NA,0,0,0,0,0,1,NA,0,0,0,0,0,0,1,0,1,0,1,0,1,0,1,"eng","prot_catch_trial","triplet13","orderSI=121","orderAI=131","0:4.2","131;",1,0,NA,"A","SH_B","veronique_fr_74","maureen_eng_73","jeremy_eng_73","veronique","maureen","jeremy","I","AH","AH","AH","I","SHIB","SHAHB","SHAHB","A",1
"113","X_PGESXNWMAC","eng","0:23.3",0,1,0,0,0,0,0,1,0,0,0,0,0,0,1,0,1,1,0,0,0,0,0,1,91,"eng",0,0,0,1,0,0,0,1,NA,NA,0,1,0,NA,0,0,0,1,0,0,NA,0,0,0,1,0,0,1,0,1,0,1,0,1,0,1,"eng","prot_catch_trial","triplet25","orderSI=20","orderAI=16","0:4.5","16;",1,0,NA,"A","Z_B","veronique_fr_208","maureen_eng_215","jeremy_eng_215","veronique","maureen","jeremy","A","IH","IH","IH","A","ZAB","ZIHB","ZIHB","A",1
"114","X_PGESXNWMAC","eng","0:23.3",0,1,0,0,0,0,0,1,0,0,0,0,0,0,1,0,1,1,0,0,0,0,0,1,91,"eng",0,0,0,1,0,0,0,1,NA,NA,0,1,0,NA,0,0,0,1,0,0,NA,0,0,0,1,0,0,1,0,1,0,1,0,1,0,1,"eng","prot_catch_trial","triplet44","orderSI=50","orderAI=17","0:3.7","17;",1,0,NA,"A","Z_F","veronique_eng_219","maureen_fr_104","remi_fr_99","veronique","maureen","remi","IH","I","I","IH","I","ZIHF","ZIF","ZIF","A",1
"115","X_PGESXNWMAC","eng","0:23.3",0,1,0,0,0,0,0,1,0,0,0,0,0,0,1,0,1,1,0,0,0,0,0,1,91,"eng",0,0,0,1,0,0,0,1,NA,NA,0,1,0,NA,0,0,0,1,0,0,NA,0,0,0,1,0,0,1,0,1,0,1,0,1,0,1,"eng","prot_catch_trial","triplet111","orderSI=43","orderAI=18","0:4.4","18;",0,1,NA,"B","Z_S","maureen_fr_55","veronique_eng_218","ewan_eng_235","maureen","veronique","ewan","E","IH","IH","IH","E","ZES","ZIHS","ZIHS","B",1
"116","X_PGESXNWMAC","eng","0:23.3",0,1,0,0,0,0,0,1,0,0,0,0,0,0,1,0,1,1,0,0,0,0,0,1,91,"eng",0,0,0,1,0,0,0,1,NA,NA,0,1,0,NA,0,0,0,1,0,0,NA,0,0,0,1,0,0,1,0,1,0,1,0,1,0,1,"eng","prot_catch_trial","triplet32","orderSI=24","orderAI=19","0:4.1","19;",1,0,NA,"A","Z_SH","veronique_eng_48","maureen_fr_105","marc_fr_96","veronique","maureen","marc","AE","I","I","AE","I","ZAESH","ZISH","ZISH","A",1
"117","X_PGESXNWMAC","eng","0:23.3",0,1,0,0,0,0,0,1,0,0,0,0,0,0,1,0,1,1,0,0,0,0,0,1,91,"eng",0,0,0,1,0,0,0,1,NA,NA,0,1,0,NA,0,0,0,1,0,0,NA,0,0,0,1,0,0,1,0,1,0,1,0,1,0,1,"eng","prot_catch_trial","triplet30","orderSI=16","orderAI=20","0:10.2","20;",0,1,NA,"B","Z_D","veronique_eng_65","maureen_fr_184","marc_fr_175","veronique","maureen","marc","AH","OE","OE","AH","OE","ZAHD","ZOED","ZOED","B",1
"118","X_PGESXNWMAC","eng","0:23.3",0,1,0,0,0,0,0,1,0,0,0,0,0,0,1,0,1,1,0,0,0,0,0,1,91,"eng",0,0,0,1,0,0,0,1,NA,NA,0,1,0,NA,0,0,0,1,0,0,NA,0,0,0,1,0,0,1,0,1,0,1,0,1,0,1,"eng","prot_catch_trial","triplet24","orderSI=17","orderAI=21","0:3.9","21;",1,0,NA,"A","Z_D","veronique_eng_36","maureen_fr_40","remi_fr_39","veronique","maureen","remi","AE","E","E","AE","E","ZAED","ZED","ZED","A",1
"119","X_PGESXNWMAC","eng","0:23.3",0,1,0,0,0,0,0,1,0,0,0,0,0,0,1,0,1,1,0,0,0,0,0,1,91,"eng",0,0,0,1,0,0,0,1,NA,NA,0,1,0,NA,0,0,0,1,0,0,NA,0,0,0,1,0,0,1,0,1,0,1,0,1,0,1,"eng","prot_catch_trial","triplet8","orderSI=35","orderAI=23","0:4.9","23;",0,1,NA,"A","V_Z","veronique_eng_30","maureen_fr_150","marc_fr_140","veronique","maureen","marc","UH","OE","OE","UH","OE","VUHZ","VOEZ","VOEZ","B",0
"120","X_PGESXNWMAC","eng","0:23.3",0,1,0,0,0,0,0,1,0,0,0,0,0,0,1,0,1,1,0,0,0,0,0,1,91,"eng",0,0,0,1,0,0,0,1,NA,NA,0,1,0,NA,0,0,0,1,0,0,NA,0,0,0,1,0,0,1,0,1,0,1,0,1,0,1,"eng","prot_catch_trial","triplet107","orderSI=52","orderAI=24","0:5.0","24;",1,0,NA,"B","V_SH","maureen_fr_166","veronique_eng_33","ewan_eng_36","maureen","veronique","ewan","O","UH","UH","UH","O","VOSH","VUHSH","VUHSH","A",0
"121","X_PGESXNWMAC","eng","0:23.3",0,1,0,0,0,0,0,1,0,0,0,0,0,0,1,0,1,1,0,0,0,0,0,1,91,"eng",0,0,0,1,0,0,0,1,NA,NA,0,1,0,NA,0,0,0,1,0,0,NA,0,0,0,1,0,0,1,0,1,0,1,0,1,0,1,"eng","prot_catch_trial","triplet105","orderSI=44","orderAI=25","0:5.0","25;",1,0,NA,"A","Z_D","maureen_fr_203","veronique_eng_205","jeremy_eng_216","maureen","veronique","jeremy","O","IH","IH","IH","O","ZOD","ZIHD","ZIHD","A",1
"122","X_PGESXNWMAC","eng","0:23.3",0,1,0,0,0,0,0,1,0,0,0,0,0,0,1,0,1,1,0,0,0,0,0,1,91,"eng",0,0,0,1,0,0,0,1,NA,NA,0,1,0,NA,0,0,0,1,0,0,NA,0,0,0,1,0,0,1,0,1,0,1,0,1,0,1,"eng","prot_catch_trial","triplet85","orderSI=46","orderAI=26","0:3.6","26;",1,0,NA,"A","V_SH","maureen_fr_36","veronique_eng_60","jeremy_eng_63","maureen","veronique","jeremy","U","AE","AE","AE","U","VUSH","VAESH","VAESH","A",1
"123","X_PGESXNWMAC","eng","0:23.3",0,1,0,0,0,0,0,1,0,0,0,0,0,0,1,0,1,1,0,0,0,0,0,1,91,"eng",0,0,0,1,0,0,0,1,NA,NA,0,1,0,NA,0,0,0,1,0,0,NA,0,0,0,1,0,0,1,0,1,0,1,0,1,0,1,"eng","prot_catch_trial","triplet27","orderSI=22","orderAI=27","0:3.7","27;",0,1,NA,"B","V_G","veronique_fr_47","maureen_eng_76","ewan_eng_77","veronique","maureen","ewan","E","AH","AH","AH","E","VEG","VAHG","VAHG","B",1
"124","X_PGESXNWMAC","eng","0:23.3",0,1,0,0,0,0,0,1,0,0,0,0,0,0,1,0,1,1,0,0,0,0,0,1,91,"eng",0,0,0,1,0,0,0,1,NA,NA,0,1,0,NA,0,0,0,1,0,0,NA,0,0,0,1,0,0,1,0,1,0,1,0,1,0,1,"eng","prot_catch_trial","triplet52","orderSI=45","orderAI=28","0:3.3","28;",1,0,NA,"A","SH_S","maureen_eng_117","veronique_fr_31","remi_fr_30","maureen","veronique","remi","AH","U","U","AH","U","SHAHS","SHUS","SHUS","A",1
"125","X_PGESXNWMAC","eng","0:23.3",0,1,0,0,0,0,0,1,0,0,0,0,0,0,1,0,1,1,0,0,0,0,0,1,91,"eng",0,0,0,1,0,0,0,1,NA,NA,0,1,0,NA,0,0,0,1,0,0,NA,0,0,0,1,0,0,1,0,1,0,1,0,1,0,1,"eng","prot_catch_trial","triplet31","orderSI=21","orderAI=29","0:3.2","29;",1,0,NA,"B","Z_V","veronique_fr_134","maureen_eng_100","jeremy_eng_98","veronique","maureen","jeremy","OE","AH","AH","AH","OE","ZOEV","ZAHV","ZAHV","A",0
"126","X_PGESXNWMAC","eng","0:23.3",0,1,0,0,0,0,0,1,0,0,0,0,0,0,1,0,1,1,0,0,0,0,0,1,91,"eng",0,0,0,1,0,0,0,1,NA,NA,0,1,0,NA,0,0,0,1,0,0,NA,0,0,0,1,0,0,1,0,1,0,1,0,1,0,1,"eng","prot_catch_trial","triplet53","orderSI=39","orderAI=30","0:4.5","30;",1,0,NA,"A","Z_G","maureen_fr_183","veronique_eng_3","ewan_eng_3","maureen","veronique","ewan","OE","UH","UH","UH","OE","ZOEG","ZUHG","ZUHG","A",1
"127","X_PGESXNWMAC","eng","0:23.3",0,1,0,0,0,0,0,1,0,0,0,0,0,0,1,0,1,1,0,0,0,0,0,1,91,"eng",0,0,0,1,0,0,0,1,NA,NA,0,1,0,NA,0,0,0,1,0,0,NA,0,0,0,1,0,0,1,0,1,0,1,0,1,0,1,"eng","prot_catch_trial","triplet20","orderSI=33","orderAI=31","0:3.7","31;",0,1,NA,"A","Z_B","maureen_eng_4","veronique_fr_82","marc_fr_77","maureen","veronique","marc","UH","Y","Y","UH","Y","ZUHB","ZYB","ZYB","B",0
"128","X_PGESXNWMAC","eng","0:23.3",0,1,0,0,0,0,0,1,0,0,0,0,0,0,1,0,1,1,0,0,0,0,0,1,91,"eng",0,0,0,1,0,0,0,1,NA,NA,0,1,0,NA,0,0,0,1,0,0,NA,0,0,0,1,0,0,1,0,1,0,1,0,1,0,1,"eng","prot_catch_trial","triplet47","orderSI=40","orderAI=32","0:4.9","32;",0,1,NA,"B","S_G","maureen_fr_222","veronique_eng_67","jeremy_eng_70","maureen","veronique","jeremy","A","AH","AH","AH","A","SAG","SAHG","SAHG","B",1
"129","X_PGESXNWMAC","eng","0:23.3",0,1,0,0,0,0,0,1,0,0,0,0,0,0,1,0,1,1,0,0,0,0,0,1,91,"eng",0,0,0,1,0,0,0,1,NA,NA,0,1,0,NA,0,0,0,1,0,0,NA,0,0,0,1,0,0,1,0,1,0,1,0,1,0,1,"eng","prot_catch_trial","triplet110","orderSI=41","orderAI=33","0:3.6","33;",0,1,NA,"B","SH_S","maureen_eng_31","veronique_fr_107","remi_fr_106","maureen","veronique","remi","UH","I","I","UH","I","SHUHS","SHIS","SHIS","B",1
"130","X_PGESXNWMAC","eng","0:23.3",0,1,0,0,0,0,0,1,0,0,0,0,0,0,1,0,1,1,0,0,0,0,0,1,91,"eng",0,0,0,1,0,0,0,1,NA,NA,0,1,0,NA,0,0,0,1,0,0,NA,0,0,0,1,0,0,1,0,1,0,1,0,1,0,1,"eng","prot_catch_trial","triplet26","orderSI=25","orderAI=34","0:3.7","34;",0,1,NA,"B","Z_B","veronique_eng_204","maureen_fr_4","remi_fr_4","veronique","maureen","remi","IH","U","U","IH","U","ZIHB","ZUB","ZUB","B",1
"131","X_PGESXNWMAC","eng","0:23.3",0,1,0,0,0,0,0,1,0,0,0,0,0,0,1,0,1,1,0,0,0,0,0,1,91,"eng",0,0,0,1,0,0,0,1,NA,NA,0,1,0,NA,0,0,0,1,0,0,NA,0,0,0,1,0,0,1,0,1,0,1,0,1,0,1,"eng","prot_catch_trial","triplet19","orderSI=19","orderAI=35","0:3.3","35;",0,1,NA,"B","Z_V","veronique_fr_164","maureen_eng_23","jeremy_eng_23","veronique","maureen","jeremy","A","UH","UH","UH","A","ZAV","ZUHV","ZUHV","B",1
"132","X_PGESXNWMAC","eng","0:23.3",0,1,0,0,0,0,0,1,0,0,0,0,0,0,1,0,1,1,0,0,0,0,0,1,91,"eng",0,0,0,1,0,0,0,1,NA,NA,0,1,0,NA,0,0,0,1,0,0,NA,0,0,0,1,0,0,1,0,1,0,1,0,1,0,1,"eng","prot_catch_trial","triplet78","orderSI=53","orderAI=36","0:4.4","36;",0,1,NA,"B","SH_B","maureen_eng_223","veronique_fr_90","remi_fr_89","maureen","veronique","remi","IH","Y","Y","IH","Y","SHIHB","SHYB","SHYB","B",1
"133","X_PGESXNWMAC","eng","0:23.3",0,1,0,0,0,0,0,1,0,0,0,0,0,0,1,0,1,1,0,0,0,0,0,1,91,"eng",0,0,0,1,0,0,0,1,NA,NA,0,1,0,NA,0,0,0,1,0,0,NA,0,0,0,1,0,0,1,0,1,0,1,0,1,0,1,"eng","prot_catch_trial","triplet22","orderSI=26","orderAI=37","0:3.8","37;",0,1,NA,"B","V_SH","veronique_eng_60","maureen_fr_152","marc_fr_142","veronique","maureen","marc","AE","OE","OE","AE","OE","VAESH","VOESH","VOESH","B",1
"134","X_PGESXNWMAC","eng","0:23.3",0,1,0,0,0,0,0,1,0,0,0,0,0,0,1,0,1,1,0,0,0,0,0,1,91,"eng",0,0,0,1,0,0,0,1,NA,NA,0,1,0,NA,0,0,0,1,0,0,NA,0,0,0,1,0,0,1,0,1,0,1,0,1,0,1,"eng","prot_catch_trial","triplet91","orderSI=47","orderAI=38","0:3.5","38;",0,1,NA,"B","Z_V","maureen_fr_119","veronique_eng_49","ewan_eng_53","maureen","veronique","ewan","Y","AE","AE","AE","Y","ZYV","ZAEV","ZAEV","B",1
"135","X_PGESXNWMAC","eng","0:23.3",0,1,0,0,0,0,0,1,0,0,0,0,0,0,1,0,1,1,0,0,0,0,0,1,91,"eng",0,0,0,1,0,0,0,1,NA,NA,0,1,0,NA,0,0,0,1,0,0,NA,0,0,0,1,0,0,1,0,1,0,1,0,1,0,1,"eng","prot_catch_trial","triplet46","orderSI=42","orderAI=39","0:3.6","39;",0,1,NA,"B","Z_F","maureen_eng_50","veronique_fr_113","marc_fr_108","maureen","veronique","marc","AE","Y","Y","AE","Y","ZAEF","ZYF","ZYF","B",1
"136","X_PGESXNWMAC","eng","0:23.3",0,1,0,0,0,0,0,1,0,0,0,0,0,0,1,0,1,1,0,0,0,0,0,1,91,"eng",0,0,0,1,0,0,0,1,NA,NA,0,1,0,NA,0,0,0,1,0,0,NA,0,0,0,1,0,0,1,0,1,0,1,0,1,0,1,"eng","prot_catch_trial","triplet23","orderSI=29","orderAI=40","0:3.3","40;",0,1,NA,"B","Z_D","veronique_fr_69","maureen_eng_68","jeremy_eng_68","veronique","maureen","jeremy","I","AH","AH","AH","I","ZID","ZAHD","ZAHD","B",1
"137","X_PGESXNWMAC","eng","0:23.3",0,1,0,0,0,0,0,1,0,0,0,0,0,0,1,0,1,1,0,0,0,0,0,1,91,"eng",0,0,0,1,0,0,0,1,NA,NA,0,1,0,NA,0,0,0,1,0,0,NA,0,0,0,1,0,0,1,0,1,0,1,0,1,0,1,"eng","prot_catch_trial","triplet37","orderSI=28","orderAI=41","0:3.2","41;",0,1,NA,"A","V_K","veronique_fr_76","maureen_eng_15","ewan_eng_15","veronique","maureen","ewan","I","UH","UH","UH","I","VIK","VUHK","VUHK","B",0
"138","X_PGESXNWMAC","eng","0:23.3",0,1,0,0,0,0,0,1,0,0,0,0,0,0,1,0,1,1,0,0,0,0,0,1,91,"eng",0,0,0,1,0,0,0,1,NA,NA,0,1,0,NA,0,0,0,1,0,0,NA,0,0,0,1,0,0,1,0,1,0,1,0,1,0,1,"eng","prot_catch_trial","triplet36","orderSI=27","orderAI=42","0:5.1","42;",1,0,NA,"A","Z_S","maureen_eng_229","veronique_fr_131","marc_fr_126","maureen","veronique","marc","IH","OE","OE","IH","OE","ZIHS","ZOES","ZOES","A",1
"139","X_PGESXNWMAC","eng","0:23.3",0,1,0,0,0,0,0,1,0,0,0,0,0,0,1,0,1,1,0,0,0,0,0,1,91,"eng",0,0,0,1,0,0,0,1,NA,NA,0,1,0,NA,0,0,0,1,0,0,NA,0,0,0,1,0,0,1,0,1,0,1,0,1,0,1,"eng","prot_catch_trial","triplet104","orderSI=38","orderAI=43","0:7.0","43;",1,0,NA,"A","Z_V","veronique_eng_221","maureen_fr_23","marc_fr_18","veronique","maureen","marc","IH","U","U","IH","U","ZIHV","ZUV","ZUV","A",1
"140","X_PGESXNWMAC","eng","0:23.3",0,1,0,0,0,0,0,1,0,0,0,0,0,0,1,0,1,1,0,0,0,0,0,1,91,"eng",0,0,0,1,0,0,0,1,NA,NA,0,1,0,NA,0,0,0,1,0,0,NA,0,0,0,1,0,0,1,0,1,0,1,0,1,0,1,"eng","prot_catch_trial","triplet34","orderSI=34","orderAI=44","0:3.6","44;",0,1,NA,"B","Z_V","veronique_eng_95","maureen_fr_58","remi_fr_54","veronique","maureen","remi","AH","E","E","AH","E","ZAHV","ZEV","ZEV","B",1
"141","X_PGESXNWMAC","eng","0:23.3",0,1,0,0,0,0,0,1,0,0,0,0,0,0,1,0,1,1,0,0,0,0,0,1,91,"eng",0,0,0,1,0,0,0,1,NA,NA,0,1,0,NA,0,0,0,1,0,0,NA,0,0,0,1,0,0,1,0,1,0,1,0,1,0,1,"eng","prot_catch_trial","triplet84","orderSI=37","orderAI=45","0:3.6","45;",1,0,NA,"A","V_B","maureen_eng_77","veronique_fr_194","remi_fr_192","maureen","veronique","remi","AH","OE","OE","AH","OE","VAHB","VOEB","VOEB","A",1
"142","X_PGESXNWMAC","eng","0:23.3",0,1,0,0,0,0,0,1,0,0,0,0,0,0,1,0,1,1,0,0,0,0,0,1,91,"eng",0,0,0,1,0,0,0,1,NA,NA,0,1,0,NA,0,0,0,1,0,0,NA,0,0,0,1,0,0,1,0,1,0,1,0,1,0,1,"eng","prot_catch_trial","triplet21","orderSI=32","orderAI=46","0:3.5","46;",1,0,NA,"A","SH_S","maureen_fr_126","veronique_eng_54","jeremy_eng_57","maureen","veronique","jeremy","Y","AE","AE","AE","Y","SHYS","SHAES","SHAES","A",1
"143","X_PGESXNWMAC","eng","0:23.3",0,1,0,0,0,0,0,1,0,0,0,0,0,0,1,0,1,1,0,0,0,0,0,1,91,"eng",0,0,0,1,0,0,0,1,NA,NA,0,1,0,NA,0,0,0,1,0,0,NA,0,0,0,1,0,0,1,0,1,0,1,0,1,0,1,"eng","prot_catch_trial","triplet87","orderSI=48","orderAI=47","0:3.8","47;",0,1,NA,"B","V_Z","maureen_fr_129","veronique_eng_116","jeremy_eng_120","maureen","veronique","jeremy","Y","AH","AH","AH","Y","VYZ","VAHZ","VAHZ","B",1
"144","X_PGESXNWMAC","eng","0:23.3",0,1,0,0,0,0,0,1,0,0,0,0,0,0,1,0,1,1,0,0,0,0,0,1,91,"eng",0,0,0,1,0,0,0,1,NA,NA,0,1,0,NA,0,0,0,1,0,0,NA,0,0,0,1,0,0,1,0,1,0,1,0,1,0,1,"eng","prot_catch_trial","triplet90","orderSI=36","orderAI=48","0:3.6","48;",0,1,NA,"B","V_F","veronique_eng_59","maureen_fr_68","marc_fr_60","veronique","maureen","marc","AE","E","E","AE","E","VAEF","VEF","VEF","B",1
"145","X_PGESXNWMAC","eng","0:23.3",0,1,0,0,0,0,0,1,0,0,0,0,0,0,1,0,1,1,0,0,0,0,0,1,91,"eng",0,0,0,1,0,0,0,1,NA,NA,0,1,0,NA,0,0,0,1,0,0,NA,0,0,0,1,0,0,1,0,1,0,1,0,1,0,1,"eng","prot_catch_trial","triplet50","orderSI=51","orderAI=49","0:3.5","49;",1,0,NA,"B","Z_S","veronique_eng_93","maureen_fr_168","marc_fr_158","veronique","maureen","marc","AH","A","A","AH","A","ZAHS","ZAS","ZAS","A",0
"146","X_PGESXNWMAC","eng","0:23.3",0,1,0,0,0,0,0,1,0,0,0,0,0,0,1,0,1,1,0,0,0,0,0,1,91,"eng",0,0,0,1,0,0,0,1,NA,NA,0,1,0,NA,0,0,0,1,0,0,NA,0,0,0,1,0,0,1,0,1,0,1,0,1,0,1,"eng","prot_catch_trial","triplet33","orderSI=23","orderAI=50","0:3.6","50;",1,0,NA,"A","V_G","maureen_fr_197","veronique_eng_215","ewan_eng_232","maureen","veronique","ewan","OE","IH","IH","IH","OE","VOEG","VIHG","VIHG","A",1
"147","X_PGESXNWMAC","eng","0:23.3",0,1,0,0,0,0,0,1,0,0,0,0,0,0,1,0,1,1,0,0,0,0,0,1,91,"eng",0,0,0,1,0,0,0,1,NA,NA,0,1,0,NA,0,0,0,1,0,0,NA,0,0,0,1,0,0,1,0,1,0,1,0,1,0,1,"eng","prot_catch_trial","triplet9","orderSI=30","orderAI=51","0:3.9","51;",0,1,NA,"A","V_B","maureen_fr_100","veronique_eng_17","jeremy_eng_17","maureen","veronique","jeremy","Y","UH","UH","UH","Y","VYB","VUHB","VUHB","B",0
"148","X_PGESXNWMAC","eng","0:23.3",0,1,0,0,0,0,0,1,0,0,0,0,0,0,1,0,1,1,0,0,0,0,0,1,91,"eng",0,0,0,1,0,0,0,1,NA,NA,0,1,0,NA,0,0,0,1,0,0,NA,0,0,0,1,0,0,1,0,1,0,1,0,1,0,1,"eng","prot_catch_trial","triplet18","orderSI=18","orderAI=52","0:3.7","52;",0,1,NA,"B","Z_F","veronique_eng_219","maureen_fr_169","marc_fr_159","veronique","maureen","marc","IH","A","A","IH","A","ZIHF","ZAF","ZAF","B",1
"149","X_PGESXNWMAC","eng","0:23.3",0,1,0,0,0,0,0,1,0,0,0,0,0,0,1,0,1,1,0,0,0,0,0,1,91,"eng",0,0,0,1,0,0,0,1,NA,NA,0,1,0,NA,0,0,0,1,0,0,NA,0,0,0,1,0,0,1,0,1,0,1,0,1,0,1,"eng","prot_catch_trial","triplet35","orderSI=31","orderAI=53","0:3.3","53;",0,1,NA,"B","F_P","veronique_fr_8","maureen_eng_219","jeremy_eng_219","veronique","maureen","jeremy","U","IH","IH","IH","U","FUP","FIHP","FIHP","B",1
"150","X_PGESXNWMAC","eng","0:23.3",0,1,0,0,0,0,0,1,0,0,0,0,0,0,1,0,1,1,0,0,0,0,0,1,91,"eng",0,0,0,1,0,0,0,1,NA,NA,0,1,0,NA,0,0,0,1,0,0,NA,0,0,0,1,0,0,1,0,1,0,1,0,1,0,1,"eng","prot_catch_trial","triplet93","orderSI=49","orderAI=54","0:3.2","54;",1,0,NA,"A","V_SH","veronique_fr_128","maureen_eng_236","jeremy_eng_238","veronique","maureen","jeremy","Y","IH","IH","IH","Y","VYSH","VIHSH","VIHSH","A",1
"151","X_PGESXNWMAC","eng","0:23.3",0,1,0,0,0,0,0,1,0,0,0,0,0,0,1,0,1,1,0,0,0,0,0,1,91,"eng",0,0,0,1,0,0,0,1,NA,NA,0,1,0,NA,0,0,0,1,0,0,NA,0,0,0,1,0,0,1,0,1,0,1,0,1,0,1,"eng","prot_catch_trial","triplet41","orderSI=66","orderAI=56","0:5.8","56;",1,0,NA,"A","V_Z","veronique_fr_145","maureen_eng_54","ewan_eng_61","veronique","maureen","ewan","OE","AE","AE","AE","OE","VOEZ","VAEZ","VAEZ","A",1
"152","X_PGESXNWMAC","eng","0:23.3",0,1,0,0,0,0,0,1,0,0,0,0,0,0,1,0,1,1,0,0,0,0,0,1,91,"eng",0,0,0,1,0,0,0,1,NA,NA,0,1,0,NA,0,0,0,1,0,0,NA,0,0,0,1,0,0,1,0,1,0,1,0,1,0,1,"eng","prot_catch_trial","triplet99","orderSI=85","orderAI=57","0:3.3","57;",0,1,NA,"B","Z_B","maureen_fr_73","veronique_eng_35","ewan_eng_38","maureen","veronique","ewan","I","AE","AE","AE","I","ZIB","ZAEB","ZAEB","B",1
"153","X_PGESXNWMAC","eng","0:23.3",0,1,0,0,0,0,0,1,0,0,0,0,0,0,1,0,1,1,0,0,0,0,0,1,91,"eng",0,0,0,1,0,0,0,1,NA,NA,0,1,0,NA,0,0,0,1,0,0,NA,0,0,0,1,0,0,1,0,1,0,1,0,1,0,1,"eng","prot_catch_trial","triplet83","orderSI=74","orderAI=58","0:4.4","58;",1,0,NA,"B","V_B","veronique_fr_204","maureen_eng_77","jeremy_eng_75","veronique","maureen","jeremy","O","AH","AH","AH","O","VOB","VAHB","VAHB","A",0
"154","X_PGESXNWMAC","eng","0:23.3",0,1,0,0,0,0,0,1,0,0,0,0,0,0,1,0,1,1,0,0,0,0,0,1,91,"eng",0,0,0,1,0,0,0,1,NA,NA,0,1,0,NA,0,0,0,1,0,0,NA,0,0,0,1,0,0,1,0,1,0,1,0,1,0,1,"eng","prot_catch_trial","triplet67","orderSI=88","orderAI=59","0:3.7","59;",0,1,NA,"B","V_B","maureen_fr_82","veronique_eng_17","ewan_eng_17","maureen","veronique","ewan","I","UH","UH","UH","I","VIB","VUHB","VUHB","B",1
"155","X_PGESXNWMAC","eng","0:23.3",0,1,0,0,0,0,0,1,0,0,0,0,0,0,1,0,1,1,0,0,0,0,0,1,91,"eng",0,0,0,1,0,0,0,1,NA,NA,0,1,0,NA,0,0,0,1,0,0,NA,0,0,0,1,0,0,1,0,1,0,1,0,1,0,1,"eng","prot_catch_trial","triplet95","orderSI=75","orderAI=60","0:5.2","60;",0,1,NA,"B","Z_SH","veronique_fr_150","maureen_eng_231","ewan_eng_237","veronique","maureen","ewan","O","IH","IH","IH","O","ZOSH","ZIHSH","ZIHSH","B",1
"156","X_PGESXNWMAC","eng","0:23.3",0,1,0,0,0,0,0,1,0,0,0,0,0,0,1,0,1,1,0,0,0,0,0,1,91,"eng",0,0,0,1,0,0,0,1,NA,NA,0,1,0,NA,0,0,0,1,0,0,NA,0,0,0,1,0,0,1,0,1,0,1,0,1,0,1,"eng","prot_catch_trial","triplet68","orderSI=72","orderAI=61","0:4.3","61;",1,0,NA,"A","Z_S","maureen_eng_49","veronique_fr_20","marc_fr_15","maureen","veronique","marc","AE","U","U","AE","U","ZAES","ZUS","ZUS","A",1
"157","X_PGESXNWMAC","eng","0:23.3",0,1,0,0,0,0,0,1,0,0,0,0,0,0,1,0,1,1,0,0,0,0,0,1,91,"eng",0,0,0,1,0,0,0,1,NA,NA,0,1,0,NA,0,0,0,1,0,0,NA,0,0,0,1,0,0,1,0,1,0,1,0,1,0,1,"eng","prot_catch_trial","triplet66","orderSI=87","orderAI=62","0:4.2","62;",0,1,NA,"B","S_G","veronique_eng_6","maureen_fr_204","marc_fr_198","veronique","maureen","marc","UH","O","O","UH","O","SUHG","SOG","SOG","B",1
"158","X_PGESXNWMAC","eng","0:23.3",0,1,0,0,0,0,0,1,0,0,0,0,0,0,1,0,1,1,0,0,0,0,0,1,91,"eng",0,0,0,1,0,0,0,1,NA,NA,0,1,0,NA,0,0,0,1,0,0,NA,0,0,0,1,0,0,1,0,1,0,1,0,1,0,1,"eng","prot_catch_trial","triplet57","orderSI=81","orderAI=63","0:3.6","63;",1,0,NA,"A","Z_D","veronique_fr_83","maureen_eng_68","ewan_eng_69","veronique","maureen","ewan","Y","AH","AH","AH","Y","ZYD","ZAHD","ZAHD","A",1
"159","X_PGESXNWMAC","eng","0:23.3",0,1,0,0,0,0,0,1,0,0,0,0,0,0,1,0,1,1,0,0,0,0,0,1,91,"eng",0,0,0,1,0,0,0,1,NA,NA,0,1,0,NA,0,0,0,1,0,0,NA,0,0,0,1,0,0,1,0,1,0,1,0,1,0,1,"eng","prot_catch_trial","triplet65","orderSI=91","orderAI=64","0:3.4","64;",1,0,NA,"A","Z_F","veronique_fr_52","maureen_eng_50","jeremy_eng_50","veronique","maureen","jeremy","E","AE","AE","AE","E","ZEF","ZAEF","ZAEF","A",1
"160","X_PGESXNWMAC","eng","0:23.3",0,1,0,0,0,0,0,1,0,0,0,0,0,0,1,0,1,1,0,0,0,0,0,1,91,"eng",0,0,0,1,0,0,0,1,NA,NA,0,1,0,NA,0,0,0,1,0,0,NA,0,0,0,1,0,0,1,0,1,0,1,0,1,0,1,"eng","prot_catch_trial","triplet98","orderSI=90","orderAI=65","0:3.6","65;",0,1,NA,"B","Z_S","veronique_eng_20","maureen_fr_116","marc_fr_107","veronique","maureen","marc","UH","Y","Y","UH","Y","ZUHS","ZYS","ZYS","B",1
"161","X_PGESXNWMAC","eng","0:23.3",0,1,0,0,0,0,0,1,0,0,0,0,0,0,1,0,1,1,0,0,0,0,0,1,91,"eng",0,0,0,1,0,0,0,1,NA,NA,0,1,0,NA,0,0,0,1,0,0,NA,0,0,0,1,0,0,1,0,1,0,1,0,1,0,1,"eng","prot_catch_trial","triplet92","orderSI=61","orderAI=66","0:3.5","66;",1,0,NA,"A","Z_B","veronique_eng_64","maureen_fr_39","marc_fr_34","veronique","maureen","marc","AH","E","E","AH","E","ZAHB","ZEB","ZEB","A",1
"162","X_PGESXNWMAC","eng","0:23.3",0,1,0,0,0,0,0,1,0,0,0,0,0,0,1,0,1,1,0,0,0,0,0,1,91,"eng",0,0,0,1,0,0,0,1,NA,NA,0,1,0,NA,0,0,0,1,0,0,NA,0,0,0,1,0,0,1,0,1,0,1,0,1,0,1,"eng","prot_catch_trial","triplet101","orderSI=78","orderAI=67","0:5.2","67;",0,1,NA,"A","Z_V","veronique_fr_164","maureen_eng_100","ewan_eng_101","veronique","maureen","ewan","A","AH","AH","AH","A","ZAV","ZAHV","ZAHV","B",0
"163","X_PGESXNWMAC","eng","0:23.3",0,1,0,0,0,0,0,1,0,0,0,0,0,0,1,0,1,1,0,0,0,0,0,1,91,"eng",0,0,0,1,0,0,0,1,NA,NA,0,1,0,NA,0,0,0,1,0,0,NA,0,0,0,1,0,0,1,0,1,0,1,0,1,0,1,"eng","prot_catch_trial","triplet54","orderSI=70","orderAI=68","0:4.1","68;",0,1,NA,"B","Z_V","veronique_eng_49","maureen_fr_106","marc_fr_97","veronique","maureen","marc","AE","I","I","AE","I","ZAEV","ZIV","ZIV","B",1
"164","X_PGESXNWMAC","eng","0:23.3",0,1,0,0,0,0,0,1,0,0,0,0,0,0,1,0,1,1,0,0,0,0,0,1,91,"eng",0,0,0,1,0,0,0,1,NA,NA,0,1,0,NA,0,0,0,1,0,0,NA,0,0,0,1,0,0,1,0,1,0,1,0,1,0,1,"eng","prot_catch_trial","triplet55","orderSI=68","orderAI=69","0:3.8","69;",0,1,NA,"B","V_K","maureen_fr_15","veronique_eng_72","jeremy_eng_74","maureen","veronique","jeremy","U","AH","AH","AH","U","VUK","VAHK","VAHK","B",1
"165","X_PGESXNWMAC","eng","0:23.3",0,1,0,0,0,0,0,1,0,0,0,0,0,0,1,0,1,1,0,0,0,0,0,1,91,"eng",0,0,0,1,0,0,0,1,NA,NA,0,1,0,NA,0,0,0,1,0,0,NA,0,0,0,1,0,0,1,0,1,0,1,0,1,0,1,"eng","prot_catch_trial","triplet40","orderSI=71","orderAI=70","0:3.7","70;",1,0,NA,"A","Z_V","maureen_eng_52","veronique_fr_151","remi_fr_150","maureen","veronique","remi","AE","O","O","AE","O","ZAEV","ZOV","ZOV","A",1
"166","X_PGESXNWMAC","eng","0:23.3",0,1,0,0,0,0,0,1,0,0,0,0,0,0,1,0,1,1,0,0,0,0,0,1,91,"eng",0,0,0,1,0,0,0,1,NA,NA,0,1,0,NA,0,0,0,1,0,0,NA,0,0,0,1,0,0,1,0,1,0,1,0,1,0,1,"eng","prot_catch_trial","triplet59","orderSI=93","orderAI=71","0:3.6","71;",0,1,NA,"B","V_B","maureen_fr_198","veronique_eng_43","jeremy_eng_46","maureen","veronique","jeremy","OE","AE","AE","AE","OE","VOEB","VAEB","VAEB","B",1
"167","X_PGESXNWMAC","eng","0:23.3",0,1,0,0,0,0,0,1,0,0,0,0,0,0,1,0,1,1,0,0,0,0,0,1,91,"eng",0,0,0,1,0,0,0,1,NA,NA,0,1,0,NA,0,0,0,1,0,0,NA,0,0,0,1,0,0,1,0,1,0,1,0,1,0,1,"eng","prot_catch_trial","triplet103","orderSI=69","orderAI=72","0:3.6","72;",0,1,NA,"B","Z_G","maureen_fr_219","veronique_eng_203","ewan_eng_220","maureen","veronique","ewan","A","IH","IH","IH","A","ZAG","ZIHG","ZIHG","B",1
"168","X_PGESXNWMAC","eng","0:23.3",0,1,0,0,0,0,0,1,0,0,0,0,0,0,1,0,1,1,0,0,0,0,0,1,91,"eng",0,0,0,1,0,0,0,1,NA,NA,0,1,0,NA,0,0,0,1,0,0,NA,0,0,0,1,0,0,1,0,1,0,1,0,1,0,1,"eng","prot_catch_trial","triplet51","orderSI=57","orderAI=73","0:5.6","73;",0,1,NA,"B","Z_F","veronique_fr_21","maureen_eng_50","ewan_eng_51","veronique","maureen","ewan","U","AE","AE","AE","U","ZUF","ZAEF","ZAEF","B",1
"169","X_PGESXNWMAC","eng","0:23.3",0,1,0,0,0,0,0,1,0,0,0,0,0,0,1,0,1,1,0,0,0,0,0,1,91,"eng",0,0,0,1,0,0,0,1,NA,NA,0,1,0,NA,0,0,0,1,0,0,NA,0,0,0,1,0,0,1,0,1,0,1,0,1,0,1,"eng","prot_catch_trial","triplet100","orderSI=82","orderAI=75","0:6.8","75;",1,0,NA,"A","Z_G","maureen_eng_3","veronique_fr_207","marc_fr_207","maureen","veronique","marc","UH","A","A","UH","A","ZUHG","ZAG","ZAG","A",1
"170","X_PGESXNWMAC","eng","0:23.3",0,1,0,0,0,0,0,1,0,0,0,0,0,0,1,0,1,1,0,0,0,0,0,1,91,"eng",0,0,0,1,0,0,0,1,NA,NA,0,1,0,NA,0,0,0,1,0,0,NA,0,0,0,1,0,0,1,0,1,0,1,0,1,0,1,"eng","prot_catch_trial","triplet72","orderSI=86","orderAI=76","0:3.4","76;",1,0,NA,"A","S_F","veronique_eng_24","maureen_fr_26","remi_fr_25","veronique","maureen","remi","UH","U","U","UH","U","SUHF","SUF","SUF","A",1
"171","X_PGESXNWMAC","eng","0:23.3",0,1,0,0,0,0,0,1,0,0,0,0,0,0,1,0,1,1,0,0,0,0,0,1,91,"eng",0,0,0,1,0,0,0,1,NA,NA,0,1,0,NA,0,0,0,1,0,0,NA,0,0,0,1,0,0,1,0,1,0,1,0,1,0,1,"eng","prot_catch_trial","triplet102","orderSI=67","orderAI=77","0:3.2","77;",0,1,NA,"B","V_B","maureen_eng_227","veronique_fr_204","marc_fr_204","maureen","veronique","marc","IH","O","O","IH","O","VIHB","VOB","VOB","B",1
"172","X_PGESXNWMAC","eng","0:23.3",0,1,0,0,0,0,0,1,0,0,0,0,0,0,1,0,1,1,0,0,0,0,0,1,91,"eng",0,0,0,1,0,0,0,1,NA,NA,0,1,0,NA,0,0,0,1,0,0,NA,0,0,0,1,0,0,1,0,1,0,1,0,1,0,1,"eng","prot_catch_trial","triplet45","orderSI=60","orderAI=78","0:3.5","78;",0,1,NA,"A","V_G","maureen_fr_16","veronique_eng_16","jeremy_eng_16","maureen","veronique","jeremy","U","UH","UH","UH","U","VUG","VUHG","VUHG","B",0
"173","X_PGESXNWMAC","eng","0:23.3",0,1,0,0,0,0,0,1,0,0,0,0,0,0,1,0,1,1,0,0,0,0,0,1,91,"eng",0,0,0,1,0,0,0,1,NA,NA,0,1,0,NA,0,0,0,1,0,0,NA,0,0,0,1,0,0,1,0,1,0,1,0,1,0,1,"eng","prot_catch_trial","triplet86","orderSI=62","orderAI=79","0:3.0","79;",0,1,NA,"B","V_P","maureen_eng_14","veronique_fr_44","marc_fr_40","maureen","veronique","marc","UH","E","E","UH","E","VUHP","VEP","VEP","B",1
"174","X_PGESXNWMAC","eng","0:23.3",0,1,0,0,0,0,0,1,0,0,0,0,0,0,1,0,1,1,0,0,0,0,0,1,91,"eng",0,0,0,1,0,0,0,1,NA,NA,0,1,0,NA,0,0,0,1,0,0,NA,0,0,0,1,0,0,1,0,1,0,1,0,1,0,1,"eng","prot_catch_trial","triplet69","orderSI=65","orderAI=80","0:3.6","80;",1,0,NA,"A","Z_S","veronique_fr_99","maureen_eng_49","ewan_eng_50","veronique","maureen","ewan","I","AE","AE","AE","I","ZIS","ZAES","ZAES","A",1
"175","X_PGESXNWMAC","eng","0:23.3",0,1,0,0,0,0,0,1,0,0,0,0,0,0,1,0,1,1,0,0,0,0,0,1,91,"eng",0,0,0,1,0,0,0,1,NA,NA,0,1,0,NA,0,0,0,1,0,0,NA,0,0,0,1,0,0,1,0,1,0,1,0,1,0,1,"eng","prot_catch_trial","triplet96","orderSI=64","orderAI=81","0:3.5","81;",1,0,NA,"A","V_SH","veronique_eng_101","maureen_fr_114","remi_fr_109","veronique","maureen","remi","AH","I","I","AH","I","VAHSH","VISH","VISH","A",1
"176","X_PGESXNWMAC","eng","0:23.3",0,1,0,0,0,0,0,1,0,0,0,0,0,0,1,0,1,1,0,0,0,0,0,1,91,"eng",0,0,0,1,0,0,0,1,NA,NA,0,1,0,NA,0,0,0,1,0,0,NA,0,0,0,1,0,0,1,0,1,0,1,0,1,0,1,"eng","prot_catch_trial","triplet81","orderSI=76","orderAI=82","0:3.6","82;",1,0,NA,"A","V_B","maureen_fr_52","veronique_eng_216","ewan_eng_233","maureen","veronique","ewan","E","IH","IH","IH","E","VEB","VIHB","VIHB","A",1
"177","X_PGESXNWMAC","eng","0:23.3",0,1,0,0,0,0,0,1,0,0,0,0,0,0,1,0,1,1,0,0,0,0,0,1,91,"eng",0,0,0,1,0,0,0,1,NA,NA,0,1,0,NA,0,0,0,1,0,0,NA,0,0,0,1,0,0,1,0,1,0,1,0,1,0,1,"eng","prot_catch_trial","triplet82","orderSI=63","orderAI=83","0:6.5","83;",0,1,NA,"B","Z_F","veronique_eng_104","maureen_fr_157","marc_fr_145","veronique","maureen","marc","AH","O","O","AH","O","ZAHF","ZOF","ZOF","B",1
"178","X_PGESXNWMAC","eng","0:23.3",0,1,0,0,0,0,0,1,0,0,0,0,0,0,1,0,1,1,0,0,0,0,0,1,91,"eng",0,0,0,1,0,0,0,1,NA,NA,0,1,0,NA,0,0,0,1,0,0,NA,0,0,0,1,0,0,1,0,1,0,1,0,1,0,1,"eng","prot_catch_trial","triplet112","orderSI=59","orderAI=84","0:5.6","84;",1,0,NA,"A","V_F","maureen_eng_121","veronique_fr_159","remi_fr_158","maureen","veronique","remi","AH","O","O","AH","O","VAHF","VOF","VOF","A",1
"179","X_PGESXNWMAC","eng","0:23.3",0,1,0,0,0,0,0,1,0,0,0,0,0,0,1,0,1,1,0,0,0,0,0,1,91,"eng",0,0,0,1,0,0,0,1,NA,NA,0,1,0,NA,0,0,0,1,0,0,NA,0,0,0,1,0,0,1,0,1,0,1,0,1,0,1,"eng","prot_catch_trial","triplet71","orderSI=92","orderAI=85","0:3.2","85;",0,1,NA,"B","V_K","veronique_fr_46","maureen_eng_44","jeremy_eng_44","veronique","maureen","jeremy","E","AE","AE","AE","E","VEK","VAEK","VAEK","B",1
"180","X_PGESXNWMAC","eng","0:23.3",0,1,0,0,0,0,0,1,0,0,0,0,0,0,1,0,1,1,0,0,0,0,0,1,91,"eng",0,0,0,1,0,0,0,1,NA,NA,0,1,0,NA,0,0,0,1,0,0,NA,0,0,0,1,0,0,1,0,1,0,1,0,1,0,1,"eng","prot_catch_trial","triplet106","orderSI=58","orderAI=86","0:3.5","86;",0,1,NA,"B","Z_SH","maureen_eng_22","veronique_fr_133","remi_fr_132","maureen","veronique","remi","UH","OE","OE","UH","OE","ZUHSH","ZOESH","ZOESH","B",1
"181","X_PGESXNWMAC","eng","0:23.3",0,1,0,0,0,0,0,1,0,0,0,0,0,0,1,0,1,1,0,0,0,0,0,1,91,"eng",0,0,0,1,0,0,0,1,NA,NA,0,1,0,NA,0,0,0,1,0,0,NA,0,0,0,1,0,0,1,0,1,0,1,0,1,0,1,"eng","prot_catch_trial","triplet94","orderSI=84","orderAI=87","0:3.2","87;",0,1,NA,"B","Z_D","maureen_eng_216","veronique_fr_69","marc_fr_66","maureen","veronique","marc","IH","I","I","IH","I","ZIHD","ZID","ZID","B",1
"182","X_PGESXNWMAC","eng","0:23.3",0,1,0,0,0,0,0,1,0,0,0,0,0,0,1,0,1,1,0,0,0,0,0,1,91,"eng",0,0,0,1,0,0,0,1,NA,NA,0,1,0,NA,0,0,0,1,0,0,NA,0,0,0,1,0,0,1,0,1,0,1,0,1,0,1,"eng","prot_catch_trial","triplet42","orderSI=79","orderAI=88","0:3.6","88;",1,0,NA,"B","V_SH","maureen_eng_236","veronique_fr_64","remi_fr_65","maureen","veronique","remi","IH","E","E","IH","E","VIHSH","VESH","VESH","A",0
"183","X_PGESXNWMAC","eng","0:23.3",0,1,0,0,0,0,0,1,0,0,0,0,0,0,1,0,1,1,0,0,0,0,0,1,91,"eng",0,0,0,1,0,0,0,1,NA,NA,0,1,0,NA,0,0,0,1,0,0,NA,0,0,0,1,0,0,1,0,1,0,1,0,1,0,1,"eng","prot_catch_trial","triplet43","orderSI=80","orderAI=89","0:4.1","89;",1,0,NA,"B","V_G","maureen_fr_81","veronique_eng_215","jeremy_eng_226","maureen","veronique","jeremy","I","IH","IH","IH","I","VIG","VIHG","VIHG","A",0
"184","X_PGESXNWMAC","eng","0:23.3",0,1,0,0,0,0,0,1,0,0,0,0,0,0,1,0,1,1,0,0,0,0,0,1,91,"eng",0,0,0,1,0,0,0,1,NA,NA,0,1,0,NA,0,0,0,1,0,0,NA,0,0,0,1,0,0,1,0,1,0,1,0,1,0,1,"eng","prot_catch_trial","triplet80","orderSI=83","orderAI=90","0:2.9","90;",1,0,NA,"A","Z_D","maureen_eng_5","veronique_fr_40","marc_fr_35","maureen","veronique","marc","UH","E","E","UH","E","ZUHD","ZED","ZED","A",1
"185","X_PGESXNWMAC","eng","0:23.3",0,1,0,0,0,0,0,1,0,0,0,0,0,0,1,0,1,1,0,0,0,0,0,1,91,"eng",0,0,0,1,0,0,0,1,NA,NA,0,1,0,NA,0,0,0,1,0,0,NA,0,0,0,1,0,0,1,0,1,0,1,0,1,0,1,"eng","prot_catch_trial","triplet56","orderSI=77","orderAI=91","0:5.2","91;",1,0,NA,"A","F_P","veronique_eng_8","maureen_fr_205","marc_fr_199","veronique","maureen","marc","UH","O","O","UH","O","FUHP","FOP","FOP","A",1
"186","X_PGESXNWMAC","eng","0:23.3",0,1,0,0,0,0,0,1,0,0,0,0,0,0,1,0,1,1,0,0,0,0,0,1,91,"eng",0,0,0,1,0,0,0,1,NA,NA,0,1,0,NA,0,0,0,1,0,0,NA,0,0,0,1,0,0,1,0,1,0,1,0,1,0,1,"eng","prot_catch_trial","triplet73","orderSI=89","orderAI=92","0:3.1","92;",1,0,NA,"A","V_F","maureen_fr_179","veronique_eng_32","ewan_eng_35","maureen","veronique","ewan","A","UH","UH","UH","A","VAF","VUHF","VUHF","A",1
"187","X_PGESXNWMAC","eng","0:23.3",0,1,0,0,0,0,0,1,0,0,0,0,0,0,1,0,1,1,0,0,0,0,0,1,91,"eng",0,0,0,1,0,0,0,1,NA,NA,0,1,0,NA,0,0,0,1,0,0,NA,0,0,0,1,0,0,1,0,1,0,1,0,1,0,1,"eng","prot_catch_trial","triplet97","orderSI=73","orderAI=93","0:2.8","93;",1,0,NA,"A","V_P","maureen_fr_217","veronique_eng_40","jeremy_eng_43","maureen","veronique","jeremy","O","AE","AE","AE","O","VOP","VAEP","VAEP","A",1
"188","X_PGESXNWMAC","eng","0:23.3",0,1,0,0,0,0,0,1,0,0,0,0,0,0,1,0,1,1,0,0,0,0,0,1,91,"eng",0,0,0,1,0,0,0,1,NA,NA,0,1,0,NA,0,0,0,1,0,0,NA,0,0,0,1,0,0,1,0,1,0,1,0,1,0,1,"eng","prot_catch_trial","triplet79","orderSI=56","orderAI=94","0:3.3","94;",0,1,NA,"B","SH_V","veronique_fr_124","maureen_eng_32","ewan_eng_32","veronique","maureen","ewan","Y","UH","UH","UH","Y","SHYV","SHUHV","SHUHV","B",1
"189","X_PGESXNWMAC","eng","0:23.3",0,1,0,0,0,0,0,1,0,0,0,0,0,0,1,0,1,1,0,0,0,0,0,1,91,"eng",0,0,0,1,0,0,0,1,NA,NA,0,1,0,NA,0,0,0,1,0,0,NA,0,0,0,1,0,0,1,0,1,0,1,0,1,0,1,"eng","prot_catch_trial","triplet62","orderSI=109","orderAI=96","0:5.4","96;",0,1,NA,"B","V_Z","maureen_eng_54","veronique_fr_157","remi_fr_156","maureen","veronique","remi","AE","O","O","AE","O","VAEZ","VOZ","VOZ","B",1
"190","X_PGESXNWMAC","eng","0:23.3",0,1,0,0,0,0,0,1,0,0,0,0,0,0,1,0,1,1,0,0,0,0,0,1,91,"eng",0,0,0,1,0,0,0,1,NA,NA,0,1,0,NA,0,0,0,1,0,0,NA,0,0,0,1,0,0,1,0,1,0,1,0,1,0,1,"eng","prot_catch_trial","triplet77","orderSI=107","orderAI=97","0:3.1","97;",1,0,NA,"A","Z_V","maureen_fr_106","veronique_eng_221","jeremy_eng_232","maureen","veronique","jeremy","I","IH","IH","IH","I","ZIV","ZIHV","ZIHV","A",1
"191","X_PGESXNWMAC","eng","0:23.3",0,1,0,0,0,0,0,1,0,0,0,0,0,0,1,0,1,1,0,0,0,0,0,1,91,"eng",0,0,0,1,0,0,0,1,NA,NA,0,1,0,NA,0,0,0,1,0,0,NA,0,0,0,1,0,0,1,0,1,0,1,0,1,0,1,"eng","prot_catch_trial","triplet64","orderSI=98","orderAI=98","0:2.9","98;",1,0,NA,"A","V_B","maureen_eng_227","veronique_fr_215","marc_fr_215","maureen","veronique","marc","IH","A","A","IH","A","VIHB","VAB","VAB","A",1
"192","X_PGESXNWMAC","eng","0:23.3",0,1,0,0,0,0,0,1,0,0,0,0,0,0,1,0,1,1,0,0,0,0,0,1,91,"eng",0,0,0,1,0,0,0,1,NA,NA,0,1,0,NA,0,0,0,1,0,0,NA,0,0,0,1,0,0,1,0,1,0,1,0,1,0,1,"eng","prot_catch_trial","triplet5","orderSI=113","orderAI=99","0:2.8","99;",1,0,NA,"A","S_G","veronique_fr_6","maureen_eng_217","ewan_eng_223","veronique","maureen","ewan","U","IH","IH","IH","U","SUG","SIHG","SIHG","A",1
"193","X_PGESXNWMAC","eng","0:23.3",0,1,0,0,0,0,0,1,0,0,0,0,0,0,1,0,1,1,0,0,0,0,0,1,91,"eng",0,0,0,1,0,0,0,1,NA,NA,0,1,0,NA,0,0,0,1,0,0,NA,0,0,0,1,0,0,1,0,1,0,1,0,1,0,1,"eng","prot_catch_trial","triplet76","orderSI=110","orderAI=100","0:4.2","100;",0,1,NA,"A","SH_B","veronique_eng_38","maureen_fr_224","marc_fr_212","veronique","maureen","marc","AE","A","A","AE","A","SHAEB","SHAB","SHAB","B",0
"194","X_PGESXNWMAC","eng","0:23.3",0,1,0,0,0,0,0,1,0,0,0,0,0,0,1,0,1,1,0,0,0,0,0,1,91,"eng",0,0,0,1,0,0,0,1,NA,NA,0,1,0,NA,0,0,0,1,0,0,NA,0,0,0,1,0,0,1,0,1,0,1,0,1,0,1,"eng","prot_catch_trial","triplet70","orderSI=97","orderAI=101","0:3.2","101;",0,1,NA,"B","F_P","veronique_eng_68","maureen_fr_90","remi_fr_86","veronique","maureen","remi","AH","Y","Y","AH","Y","FAHP","FYP","FYP","B",1
"195","X_PGESXNWMAC","eng","0:23.3",0,1,0,0,0,0,0,1,0,0,0,0,0,0,1,0,1,1,0,0,0,0,0,1,91,"eng",0,0,0,1,0,0,0,1,NA,NA,0,1,0,NA,0,0,0,1,0,0,NA,0,0,0,1,0,0,1,0,1,0,1,0,1,0,1,"eng","prot_catch_trial","triplet28","orderSI=127","orderAI=102","0:3.6","102;",1,0,NA,"A","Z_F","veronique_eng_219","maureen_fr_157","remi_fr_148","veronique","maureen","remi","IH","O","O","IH","O","ZIHF","ZOF","ZOF","A",1
"196","X_PGESXNWMAC","eng","0:23.3",0,1,0,0,0,0,0,1,0,0,0,0,0,0,1,0,1,1,0,0,0,0,0,1,91,"eng",0,0,0,1,0,0,0,1,NA,NA,0,1,0,NA,0,0,0,1,0,0,NA,0,0,0,1,0,0,1,0,1,0,1,0,1,0,1,"eng","prot_catch_trial","triplet109","orderSI=111","orderAI=103","0:6.5","103;",0,1,NA,"A","Z_SH","maureen_fr_170","veronique_eng_48","ewan_eng_52","maureen","veronique","ewan","A","AE","AE","AE","A","ZASH","ZAESH","ZAESH","B",0
"197","X_PGESXNWMAC","eng","0:23.3",0,1,0,0,0,0,0,1,0,0,0,0,0,0,1,0,1,1,0,0,0,0,0,1,91,"eng",0,0,0,1,0,0,0,1,NA,NA,0,1,0,NA,0,0,0,1,0,0,NA,0,0,0,1,0,0,1,0,1,0,1,0,1,0,1,"eng","prot_catch_trial","triplet29","orderSI=130","orderAI=104","0:2.7","104;",1,0,NA,"A","F_P","veronique_fr_181","maureen_eng_71","ewan_eng_72","veronique","maureen","ewan","OE","AH","AH","AH","OE","FOEP","FAHP","FAHP","A",1
"198","X_PGESXNWMAC","eng","0:23.3",0,1,0,0,0,0,0,1,0,0,0,0,0,0,1,0,1,1,0,0,0,0,0,1,91,"eng",0,0,0,1,0,0,0,1,NA,NA,0,1,0,NA,0,0,0,1,0,0,NA,0,0,0,1,0,0,1,0,1,0,1,0,1,0,1,"eng","prot_catch_trial","triplet3","orderSI=123","orderAI=105","0:3.9","105;",0,1,NA,"B","SH_S","maureen_fr_147","veronique_eng_226","jeremy_eng_237","maureen","veronique","jeremy","OE","IH","IH","IH","OE","SHOES","SHIHS","SHIHS","B",1
"199","X_PGESXNWMAC","eng","0:23.3",0,1,0,0,0,0,0,1,0,0,0,0,0,0,1,0,1,1,0,0,0,0,0,1,91,"eng",0,0,0,1,0,0,0,1,NA,NA,0,1,0,NA,0,0,0,1,0,0,NA,0,0,0,1,0,0,1,0,1,0,1,0,1,0,1,"eng","prot_catch_trial","triplet75","orderSI=102","orderAI=106","0:7.5","106;",0,1,NA,"B","SH_B","maureen_fr_43","veronique_eng_13","ewan_eng_13","maureen","veronique","ewan","E","UH","UH","UH","E","SHEB","SHUHB","SHUHB","B",1
"200","X_PGESXNWMAC","eng","0:23.3",0,1,0,0,0,0,0,1,0,0,0,0,0,0,1,0,1,1,0,0,0,0,0,1,91,"eng",0,0,0,1,0,0,0,1,NA,NA,0,1,0,NA,0,0,0,1,0,0,NA,0,0,0,1,0,0,1,0,1,0,1,0,1,0,1,"eng","prot_catch_trial","triplet6","orderSI=119","orderAI=107","0:3.5","107;",0,1,NA,"B","V_K","veronique_eng_214","maureen_fr_196","remi_fr_190","veronique","maureen","remi","IH","OE","OE","IH","OE","VIHK","VOEK","VOEK","B",1
"201","X_PGESXNWMAC","eng","0:23.3",0,1,0,0,0,0,0,1,0,0,0,0,0,0,1,0,1,1,0,0,0,0,0,1,91,"eng",0,0,0,1,0,0,0,1,NA,NA,0,1,0,NA,0,0,0,1,0,0,NA,0,0,0,1,0,0,1,0,1,0,1,0,1,0,1,"eng","prot_catch_trial","triplet15","orderSI=129","orderAI=108","0:2.9","108;",0,1,NA,"B","Z_D","maureen_fr_203","veronique_eng_36","ewan_eng_39","maureen","veronique","ewan","O","AE","AE","AE","O","ZOD","ZAED","ZAED","B",1
"202","X_PGESXNWMAC","eng","0:23.3",0,1,0,0,0,0,0,1,0,0,0,0,0,0,1,0,1,1,0,0,0,0,0,1,91,"eng",0,0,0,1,0,0,0,1,NA,NA,0,1,0,NA,0,0,0,1,0,0,NA,0,0,0,1,0,0,1,0,1,0,1,0,1,0,1,"eng","prot_catch_trial","triplet1","orderSI=131","orderAI=109","0:2.6","109;",1,0,NA,"A","Z_F","veronique_fr_52","maureen_eng_21","jeremy_eng_21","veronique","maureen","jeremy","E","UH","UH","UH","E","ZEF","ZUHF","ZUHF","A",1
"203","X_PGESXNWMAC","eng","0:23.3",0,1,0,0,0,0,0,1,0,0,0,0,0,0,1,0,1,1,0,0,0,0,0,1,91,"eng",0,0,0,1,0,0,0,1,NA,NA,0,1,0,NA,0,0,0,1,0,0,NA,0,0,0,1,0,0,1,0,1,0,1,0,1,0,1,"eng","prot_catch_trial","triplet88","orderSI=105","orderAI=110","0:2.9","110;",1,0,NA,"A","S_G","maureen_eng_6","veronique_fr_71","remi_fr_221","maureen","veronique","remi","UH","I","I","UH","I","SUHG","SIG","SIG","A",1
"204","X_PGESXNWMAC","eng","0:23.3",0,1,0,0,0,0,0,1,0,0,0,0,0,0,1,0,1,1,0,0,0,0,0,1,91,"eng",0,0,0,1,0,0,0,1,NA,NA,0,1,0,NA,0,0,0,1,0,0,NA,0,0,0,1,0,0,1,0,1,0,1,0,1,0,1,"eng","prot_catch_trial","triplet60","orderSI=100","orderAI=111","0:3.3","111;",1,0,NA,"A","V_P","veronique_eng_86","maureen_fr_96","remi_fr_91","veronique","maureen","remi","AH","Y","Y","AH","Y","VAHP","VYP","VYP","A",1
"205","X_PGESXNWMAC","eng","0:23.3",0,1,0,0,0,0,0,1,0,0,0,0,0,0,1,0,1,1,0,0,0,0,0,1,91,"eng",0,0,0,1,0,0,0,1,NA,NA,0,1,0,NA,0,0,0,1,0,0,NA,0,0,0,1,0,0,1,0,1,0,1,0,1,0,1,"eng","prot_catch_trial","triplet89","orderSI=112","orderAI=112","0:3.4","112;",0,1,NA,"A","V_K","veronique_fr_203","maureen_eng_15","jeremy_eng_15","veronique","maureen","jeremy","O","UH","UH","UH","O","VOK","VUHK","VUHK","B",0
"206","X_PGESXNWMAC","eng","0:23.3",0,1,0,0,0,0,0,1,0,0,0,0,0,0,1,0,1,1,0,0,0,0,0,1,91,"eng",0,0,0,1,0,0,0,1,NA,NA,0,1,0,NA,0,0,0,1,0,0,NA,0,0,0,1,0,0,1,0,1,0,1,0,1,0,1,"eng","prot_catch_trial","triplet13","orderSI=121","orderAI=113","0:2.8","113;",1,0,NA,"A","SH_B","veronique_fr_74","maureen_eng_73","jeremy_eng_73","veronique","maureen","jeremy","I","AH","AH","AH","I","SHIB","SHAHB","SHAHB","A",1
"207","X_PGESXNWMAC","eng","0:23.3",0,1,0,0,0,0,0,1,0,0,0,0,0,0,1,0,1,1,0,0,0,0,0,1,91,"eng",0,0,0,1,0,0,0,1,NA,NA,0,1,0,NA,0,0,0,1,0,0,NA,0,0,0,1,0,0,1,0,1,0,1,0,1,0,1,"eng","prot_catch_trial","triplet49","orderSI=104","orderAI=114","0:2.9","114;",1,0,NA,"A","Z_S","maureen_fr_153","veronique_eng_93","ewan_eng_98","maureen","veronique","ewan","O","AH","AH","AH","O","ZOS","ZAHS","ZAHS","A",1
"208","X_PGESXNWMAC","eng","0:23.3",0,1,0,0,0,0,0,1,0,0,0,0,0,0,1,0,1,1,0,0,0,0,0,1,91,"eng",0,0,0,1,0,0,0,1,NA,NA,0,1,0,NA,0,0,0,1,0,0,NA,0,0,0,1,0,0,1,0,1,0,1,0,1,0,1,"eng","prot_catch_trial","triplet2","orderSI=126","orderAI=115","0:7.3","115;",0,1,NA,"B","V_B","maureen_eng_46","veronique_fr_215","remi_fr_216","maureen","veronique","remi","AE","A","A","AE","A","VAEB","VAB","VAB","B",1
"209","X_PGESXNWMAC","eng","0:23.3",0,1,0,0,0,0,0,1,0,0,0,0,0,0,1,0,1,1,0,0,0,0,0,1,91,"eng",0,0,0,1,0,0,0,1,NA,NA,0,1,0,NA,0,0,0,1,0,0,NA,0,0,0,1,0,0,1,0,1,0,1,0,1,0,1,"eng","prot_catch_trial","triplet14","orderSI=128","orderAI=116","0:3.4","116;",0,1,NA,"B","Z_D","veronique_eng_5","maureen_fr_5","remi_fr_5","veronique","maureen","remi","UH","U","U","UH","U","ZUHD","ZUD","ZUD","B",1
"210","X_PGESXNWMAC","eng","0:23.3",0,1,0,0,0,0,0,1,0,0,0,0,0,0,1,0,1,1,0,0,0,0,0,1,91,"eng",0,0,0,1,0,0,0,1,NA,NA,0,1,0,NA,0,0,0,1,0,0,NA,0,0,0,1,0,0,1,0,1,0,1,0,1,0,1,"eng","prot_catch_trial","triplet16","orderSI=125","orderAI=117","0:3.2","117;",1,0,NA,"A","V_K","veronique_eng_214","maureen_fr_98","remi_fr_93","veronique","maureen","remi","IH","Y","Y","IH","Y","VIHK","VYK","VYK","A",1
"211","X_PGESXNWMAC","eng","0:23.3",0,1,0,0,0,0,0,1,0,0,0,0,0,0,1,0,1,1,0,0,0,0,0,1,91,"eng",0,0,0,1,0,0,0,1,NA,NA,0,1,0,NA,0,0,0,1,0,0,NA,0,0,0,1,0,0,1,0,1,0,1,0,1,0,1,"eng","prot_catch_trial","triplet58","orderSI=96","orderAI=118","0:2.7","118;",0,1,NA,"B","V_G","maureen_eng_76","veronique_fr_16","marc_fr_11","maureen","veronique","marc","AH","U","U","AH","U","VAHG","VUG","VUG","B",1
"212","X_PGESXNWMAC","eng","0:23.3",0,1,0,0,0,0,0,1,0,0,0,0,0,0,1,0,1,1,0,0,0,0,0,1,91,"eng",0,0,0,1,0,0,0,1,NA,NA,0,1,0,NA,0,0,0,1,0,0,NA,0,0,0,1,0,0,1,0,1,0,1,0,1,0,1,"eng","prot_catch_trial","triplet11","orderSI=114","orderAI=119","0:3.4","119;",0,1,NA,"B","Z_SH","maureen_fr_118","veronique_eng_220","jeremy_eng_231","maureen","veronique","jeremy","Y","IH","IH","IH","Y","ZYSH","ZIHSH","ZIHSH","B",1
"213","X_PGESXNWMAC","eng","0:23.3",0,1,0,0,0,0,0,1,0,0,0,0,0,0,1,0,1,1,0,0,0,0,0,1,91,"eng",0,0,0,1,0,0,0,1,NA,NA,0,1,0,NA,0,0,0,1,0,0,NA,0,0,0,1,0,0,1,0,1,0,1,0,1,0,1,"eng","prot_catch_trial","triplet74","orderSI=101","orderAI=120","0:3.7","120;",0,1,NA,"B","V_B","maureen_eng_46","veronique_fr_17","remi_fr_17","maureen","veronique","remi","AE","U","U","AE","U","VAEB","VUB","VUB","B",1
"214","X_PGESXNWMAC","eng","0:23.3",0,1,0,0,0,0,0,1,0,0,0,0,0,0,1,0,1,1,0,0,0,0,0,1,91,"eng",0,0,0,1,0,0,0,1,NA,NA,0,1,0,NA,0,0,0,1,0,0,NA,0,0,0,1,0,0,1,0,1,0,1,0,1,0,1,"eng","prot_catch_trial","triplet39","orderSI=115","orderAI=121","0:3.1","121;",0,1,NA,"B","V_P","veronique_fr_14","maureen_eng_14","ewan_eng_14","veronique","maureen","ewan","U","UH","UH","UH","U","VUP","VUHP","VUHP","B",1
"215","X_PGESXNWMAC","eng","0:23.3",0,1,0,0,0,0,0,1,0,0,0,0,0,0,1,0,1,1,0,0,0,0,0,1,91,"eng",0,0,0,1,0,0,0,1,NA,NA,0,1,0,NA,0,0,0,1,0,0,NA,0,0,0,1,0,0,1,0,1,0,1,0,1,0,1,"eng","prot_catch_trial","triplet108","orderSI=106","orderAI=122","0:3.7","122;",1,0,NA,"A","V_G","maureen_eng_45","veronique_fr_95","remi_fr_94","maureen","veronique","remi","AE","Y","Y","AE","Y","VAEG","VYG","VYG","A",1
"216","X_PGESXNWMAC","eng","0:23.3",0,1,0,0,0,0,0,1,0,0,0,0,0,0,1,0,1,1,0,0,0,0,0,1,91,"eng",0,0,0,1,0,0,0,1,NA,NA,0,1,0,NA,0,0,0,1,0,0,NA,0,0,0,1,0,0,1,0,1,0,1,0,1,0,1,"eng","prot_catch_trial","triplet4","orderSI=118","orderAI=123","0:4.7","123;",1,0,NA,"A","Z_SH","maureen_eng_231","veronique_fr_53","remi_fr_53","maureen","veronique","remi","IH","E","E","IH","E","ZIHSH","ZESH","ZESH","A",1
"217","X_PGESXNWMAC","eng","0:23.3",0,1,0,0,0,0,0,1,0,0,0,0,0,0,1,0,1,1,0,0,0,0,0,1,91,"eng",0,0,0,1,0,0,0,1,NA,NA,0,1,0,NA,0,0,0,1,0,0,NA,0,0,0,1,0,0,1,0,1,0,1,0,1,0,1,"eng","prot_catch_trial","triplet10","orderSI=117","orderAI=124","0:4.5","124;",0,1,NA,"B","SH_V","veronique_eng_29","maureen_fr_177","remi_fr_168","veronique","maureen","remi","UH","A","A","UH","A","SHUHV","SHAV","SHAV","B",1
"218","X_PGESXNWMAC","eng","0:23.3",0,1,0,0,0,0,0,1,0,0,0,0,0,0,1,0,1,1,0,0,0,0,0,1,91,"eng",0,0,0,1,0,0,0,1,NA,NA,0,1,0,NA,0,0,0,1,0,0,NA,0,0,0,1,0,0,1,0,1,0,1,0,1,0,1,"eng","prot_catch_trial","triplet7","orderSI=122","orderAI=125","0:3.6","125;",0,1,NA,"B","S_F","veronique_fr_166","maureen_eng_53","jeremy_eng_53","veronique","maureen","jeremy","A","AE","AE","AE","A","SAF","SAEF","SAEF","B",1
"219","X_PGESXNWMAC","eng","0:23.3",0,1,0,0,0,0,0,1,0,0,0,0,0,0,1,0,1,1,0,0,0,0,0,1,91,"eng",0,0,0,1,0,0,0,1,NA,NA,0,1,0,NA,0,0,0,1,0,0,NA,0,0,0,1,0,0,1,0,1,0,1,0,1,0,1,"eng","prot_catch_trial","triplet61","orderSI=103","orderAI=126","0:6.0","126;",1,0,NA,"A","SH_V","maureen_fr_65","veronique_eng_115","jeremy_eng_119","maureen","veronique","jeremy","E","AH","AH","AH","E","SHEV","SHAHV","SHAHV","A",1
"220","X_PGESXNWMAC","eng","0:23.3",0,1,0,0,0,0,0,1,0,0,0,0,0,0,1,0,1,1,0,0,0,0,0,1,91,"eng",0,0,0,1,0,0,0,1,NA,NA,0,1,0,NA,0,0,0,1,0,0,NA,0,0,0,1,0,0,1,0,1,0,1,0,1,0,1,"eng","prot_catch_trial","triplet17","orderSI=124","orderAI=127","0:3.2","127;",1,0,NA,"A","Z_SH","maureen_fr_22","veronique_eng_94","jeremy_eng_97","maureen","veronique","jeremy","U","AH","AH","AH","U","ZUSH","ZAHSH","ZAHSH","A",1
"221","X_PGESXNWMAC","eng","0:23.3",0,1,0,0,0,0,0,1,0,0,0,0,0,0,1,0,1,1,0,0,0,0,0,1,91,"eng",0,0,0,1,0,0,0,1,NA,NA,0,1,0,NA,0,0,0,1,0,0,NA,0,0,0,1,0,0,1,0,1,0,1,0,1,0,1,"eng","prot_catch_trial","triplet12","orderSI=120","orderAI=128","0:2.8","128;",1,0,NA,"A","SH_V","maureen_eng_59","veronique_fr_144","marc_fr_139","maureen","veronique","marc","AE","OE","OE","AE","OE","SHAEV","SHOEV","SHOEV","A",1
"222","X_PGESXNWMAC","eng","0:23.3",0,1,0,0,0,0,0,1,0,0,0,0,0,0,1,0,1,1,0,0,0,0,0,1,91,"eng",0,0,0,1,0,0,0,1,NA,NA,0,1,0,NA,0,0,0,1,0,0,NA,0,0,0,1,0,0,1,0,1,0,1,0,1,0,1,"eng","prot_catch_trial","triplet63","orderSI=108","orderAI=129","0:2.9","129;",1,0,NA,"B","Z_F","veronique_fr_132","maureen_eng_21","jeremy_eng_21","veronique","maureen","jeremy","OE","UH","UH","UH","OE","ZOEF","ZUHF","ZUHF","A",0
"223","X_PGESXNWMAC","eng","0:23.3",0,1,0,0,0,0,0,1,0,0,0,0,0,0,1,0,1,1,0,0,0,0,0,1,91,"eng",0,0,0,1,0,0,0,1,NA,NA,0,1,0,NA,0,0,0,1,0,0,NA,0,0,0,1,0,0,1,0,1,0,1,0,1,0,1,"eng","prot_catch_trial","triplet38","orderSI=116","orderAI=130","0:2.7","130;",0,1,NA,"B","Z_G","maureen_eng_66","veronique_fr_67","marc_fr_64","maureen","veronique","marc","AH","I","I","AH","I","ZAHG","ZIG","ZIG","B",1
"224","X_PGESXNWMAC","eng","0:23.3",0,1,0,0,0,0,0,1,0,0,0,0,0,0,1,0,1,1,0,0,0,0,0,1,91,"eng",0,0,0,1,0,0,0,1,NA,NA,0,1,0,NA,0,0,0,1,0,0,NA,0,0,0,1,0,0,1,0,1,0,1,0,1,0,1,"eng","prot_catch_trial","triplet48","orderSI=99","orderAI=131","0:7.2","131;",0,1,NA,"A","Z_F","veronique_eng_104","maureen_fr_169","remi_fr_161","veronique","maureen","remi","AH","A","A","AH","A","ZAHF","ZAF","ZAF","B",0
"225","X_DEJRLMYFHX","eng","0:31.5",1,0,0,0,0,0,0,1,0,0,0,0,0,0,1,0,1,1,0,0,0,0,0,1,100,"eng",0,0,0,1,0,0,1,0,NA,NA,1,0,1,NA,0,0,0,0,0,1,NA,0,0,0,0,0,0,1,0,1,0,1,0,1,0,1,"eng","prot_catch_trial","triplet90","orderSI=36","orderAI=16","0:5.8","16;",1,0,NA,"B","V_F","veronique_eng_59","maureen_fr_68","marc_fr_60","veronique","maureen","marc","AE","E","E","AE","E","VAEF","VEF","VEF","A",0
"226","X_DEJRLMYFHX","eng","0:31.5",1,0,0,0,0,0,0,1,0,0,0,0,0,0,1,0,1,1,0,0,0,0,0,1,100,"eng",0,0,0,1,0,0,1,0,NA,NA,1,0,1,NA,0,0,0,0,0,1,NA,0,0,0,0,0,0,1,0,1,0,1,0,1,0,1,"eng","prot_catch_trial","triplet37","orderSI=28","orderAI=17","0:4.6","17;",0,1,NA,"A","V_K","veronique_fr_76","maureen_eng_15","ewan_eng_15","veronique","maureen","ewan","I","UH","UH","UH","I","VIK","VUHK","VUHK","B",0
"227","X_DEJRLMYFHX","eng","0:31.5",1,0,0,0,0,0,0,1,0,0,0,0,0,0,1,0,1,1,0,0,0,0,0,1,100,"eng",0,0,0,1,0,0,1,0,NA,NA,1,0,1,NA,0,0,0,0,0,1,NA,0,0,0,0,0,0,1,0,1,0,1,0,1,0,1,"eng","prot_catch_trial","triplet31","orderSI=21","orderAI=18","0:4.6","18;",0,1,NA,"B","Z_V","veronique_fr_134","maureen_eng_100","jeremy_eng_98","veronique","maureen","jeremy","OE","AH","AH","AH","OE","ZOEV","ZAHV","ZAHV","B",1
"228","X_DEJRLMYFHX","eng","0:31.5",1,0,0,0,0,0,0,1,0,0,0,0,0,0,1,0,1,1,0,0,0,0,0,1,100,"eng",0,0,0,1,0,0,1,0,NA,NA,1,0,1,NA,0,0,0,0,0,1,NA,0,0,0,0,0,0,1,0,1,0,1,0,1,0,1,"eng","prot_catch_trial","triplet33","orderSI=23","orderAI=19","0:5.0","19;",0,1,NA,"A","V_G","maureen_fr_197","veronique_eng_215","ewan_eng_232","maureen","veronique","ewan","OE","IH","IH","IH","OE","VOEG","VIHG","VIHG","B",0
"229","X_DEJRLMYFHX","eng","0:31.5",1,0,0,0,0,0,0,1,0,0,0,0,0,0,1,0,1,1,0,0,0,0,0,1,100,"eng",0,0,0,1,0,0,1,0,NA,NA,1,0,1,NA,0,0,0,0,0,1,NA,0,0,0,0,0,0,1,0,1,0,1,0,1,0,1,"eng","prot_catch_trial","triplet25","orderSI=20","orderAI=20","0:5.6","20;",0,1,NA,"A","Z_B","veronique_fr_208","maureen_eng_215","jeremy_eng_215","veronique","maureen","jeremy","A","IH","IH","IH","A","ZAB","ZIHB","ZIHB","B",0
"230","X_DEJRLMYFHX","eng","0:31.5",1,0,0,0,0,0,0,1,0,0,0,0,0,0,1,0,1,1,0,0,0,0,0,1,100,"eng",0,0,0,1,0,0,1,0,NA,NA,1,0,1,NA,0,0,0,0,0,1,NA,0,0,0,0,0,0,1,0,1,0,1,0,1,0,1,"eng","prot_catch_trial","triplet110","orderSI=41","orderAI=21","0:5.6","21;",1,0,NA,"B","SH_S","maureen_eng_31","veronique_fr_107","remi_fr_106","maureen","veronique","remi","UH","I","I","UH","I","SHUHS","SHIS","SHIS","A",0
"231","X_DEJRLMYFHX","eng","0:31.5",1,0,0,0,0,0,0,1,0,0,0,0,0,0,1,0,1,1,0,0,0,0,0,1,100,"eng",0,0,0,1,0,0,1,0,NA,NA,1,0,1,NA,0,0,0,0,0,1,NA,0,0,0,0,0,0,1,0,1,0,1,0,1,0,1,"eng","prot_catch_trial","triplet19","orderSI=19","orderAI=22","0:4.1","22;",1,0,NA,"B","Z_V","veronique_fr_164","maureen_eng_23","jeremy_eng_23","veronique","maureen","jeremy","A","UH","UH","UH","A","ZAV","ZUHV","ZUHV","A",0
"232","X_DEJRLMYFHX","eng","0:31.5",1,0,0,0,0,0,0,1,0,0,0,0,0,0,1,0,1,1,0,0,0,0,0,1,100,"eng",0,0,0,1,0,0,1,0,NA,NA,1,0,1,NA,0,0,0,0,0,1,NA,0,0,0,0,0,0,1,0,1,0,1,0,1,0,1,"eng","prot_catch_trial","triplet44","orderSI=50","orderAI=23","0:4.2","23;",0,1,NA,"A","Z_F","veronique_eng_219","maureen_fr_104","remi_fr_99","veronique","maureen","remi","IH","I","I","IH","I","ZIHF","ZIF","ZIF","B",0
"233","X_DEJRLMYFHX","eng","0:31.5",1,0,0,0,0,0,0,1,0,0,0,0,0,0,1,0,1,1,0,0,0,0,0,1,100,"eng",0,0,0,1,0,0,1,0,NA,NA,1,0,1,NA,0,0,0,0,0,1,NA,0,0,0,0,0,0,1,0,1,0,1,0,1,0,1,"eng","prot_catch_trial","triplet93","orderSI=49","orderAI=24","0:4.6","24;",1,0,NA,"A","V_SH","veronique_fr_128","maureen_eng_236","jeremy_eng_238","veronique","maureen","jeremy","Y","IH","IH","IH","Y","VYSH","VIHSH","VIHSH","A",1
"234","X_DEJRLMYFHX","eng","0:31.5",1,0,0,0,0,0,0,1,0,0,0,0,0,0,1,0,1,1,0,0,0,0,0,1,100,"eng",0,0,0,1,0,0,1,0,NA,NA,1,0,1,NA,0,0,0,0,0,1,NA,0,0,0,0,0,0,1,0,1,0,1,0,1,0,1,"eng","prot_catch_trial","triplet20","orderSI=33","orderAI=25","0:4.3","25;",0,1,NA,"A","Z_B","maureen_eng_4","veronique_fr_82","marc_fr_77","maureen","veronique","marc","UH","Y","Y","UH","Y","ZUHB","ZYB","ZYB","B",0
"235","X_DEJRLMYFHX","eng","0:31.5",1,0,0,0,0,0,0,1,0,0,0,0,0,0,1,0,1,1,0,0,0,0,0,1,100,"eng",0,0,0,1,0,0,1,0,NA,NA,1,0,1,NA,0,0,0,0,0,1,NA,0,0,0,0,0,0,1,0,1,0,1,0,1,0,1,"eng","prot_catch_trial","triplet78","orderSI=53","orderAI=26","0:4.3","26;",0,1,NA,"B","SH_B","maureen_eng_223","veronique_fr_90","remi_fr_89","maureen","veronique","remi","IH","Y","Y","IH","Y","SHIHB","SHYB","SHYB","B",1
"236","X_DEJRLMYFHX","eng","0:31.5",1,0,0,0,0,0,0,1,0,0,0,0,0,0,1,0,1,1,0,0,0,0,0,1,100,"eng",0,0,0,1,0,0,1,0,NA,NA,1,0,1,NA,0,0,0,0,0,1,NA,0,0,0,0,0,0,1,0,1,0,1,0,1,0,1,"eng","prot_catch_trial","triplet91","orderSI=47","orderAI=28","0:4.6","28;",1,0,NA,"B","Z_V","maureen_fr_119","veronique_eng_49","ewan_eng_53","maureen","veronique","ewan","Y","AE","AE","AE","Y","ZYV","ZAEV","ZAEV","A",0
"237","X_DEJRLMYFHX","eng","0:31.5",1,0,0,0,0,0,0,1,0,0,0,0,0,0,1,0,1,1,0,0,0,0,0,1,100,"eng",0,0,0,1,0,0,1,0,NA,NA,1,0,1,NA,0,0,0,0,0,1,NA,0,0,0,0,0,0,1,0,1,0,1,0,1,0,1,"eng","prot_catch_trial","triplet105","orderSI=44","orderAI=29","0:4.0","29;",0,1,NA,"A","Z_D","maureen_fr_203","veronique_eng_205","jeremy_eng_216","maureen","veronique","jeremy","O","IH","IH","IH","O","ZOD","ZIHD","ZIHD","B",0
"238","X_DEJRLMYFHX","eng","0:31.5",1,0,0,0,0,0,0,1,0,0,0,0,0,0,1,0,1,1,0,0,0,0,0,1,100,"eng",0,0,0,1,0,0,1,0,NA,NA,1,0,1,NA,0,0,0,0,0,1,NA,0,0,0,0,0,0,1,0,1,0,1,0,1,0,1,"eng","prot_catch_trial","triplet24","orderSI=17","orderAI=30","0:4.5","30;",0,1,NA,"A","Z_D","veronique_eng_36","maureen_fr_40","remi_fr_39","veronique","maureen","remi","AE","E","E","AE","E","ZAED","ZED","ZED","B",0
"239","X_DEJRLMYFHX","eng","0:31.5",1,0,0,0,0,0,0,1,0,0,0,0,0,0,1,0,1,1,0,0,0,0,0,1,100,"eng",0,0,0,1,0,0,1,0,NA,NA,1,0,1,NA,0,0,0,0,0,1,NA,0,0,0,0,0,0,1,0,1,0,1,0,1,0,1,"eng","prot_catch_trial","triplet87","orderSI=48","orderAI=31","0:4.5","31;",1,0,NA,"B","V_Z","maureen_fr_129","veronique_eng_116","jeremy_eng_120","maureen","veronique","jeremy","Y","AH","AH","AH","Y","VYZ","VAHZ","VAHZ","A",0
"240","X_DEJRLMYFHX","eng","0:31.5",1,0,0,0,0,0,0,1,0,0,0,0,0,0,1,0,1,1,0,0,0,0,0,1,100,"eng",0,0,0,1,0,0,1,0,NA,NA,1,0,1,NA,0,0,0,0,0,1,NA,0,0,0,0,0,0,1,0,1,0,1,0,1,0,1,"eng","prot_catch_trial","triplet21","orderSI=32","orderAI=32","0:4.3","32;",0,1,NA,"A","SH_S","maureen_fr_126","veronique_eng_54","jeremy_eng_57","maureen","veronique","jeremy","Y","AE","AE","AE","Y","SHYS","SHAES","SHAES","B",0
"241","X_DEJRLMYFHX","eng","0:31.5",1,0,0,0,0,0,0,1,0,0,0,0,0,0,1,0,1,1,0,0,0,0,0,1,100,"eng",0,0,0,1,0,0,1,0,NA,NA,1,0,1,NA,0,0,0,0,0,1,NA,0,0,0,0,0,0,1,0,1,0,1,0,1,0,1,"eng","prot_catch_trial","triplet23","orderSI=29","orderAI=33","0:4.5","33;",1,0,NA,"B","Z_D","veronique_fr_69","maureen_eng_68","jeremy_eng_68","veronique","maureen","jeremy","I","AH","AH","AH","I","ZID","ZAHD","ZAHD","A",0
"242","X_DEJRLMYFHX","eng","0:31.5",1,0,0,0,0,0,0,1,0,0,0,0,0,0,1,0,1,1,0,0,0,0,0,1,100,"eng",0,0,0,1,0,0,1,0,NA,NA,1,0,1,NA,0,0,0,0,0,1,NA,0,0,0,0,0,0,1,0,1,0,1,0,1,0,1,"eng","prot_catch_trial","triplet9","orderSI=30","orderAI=34","0:3.7","34;",0,1,NA,"A","V_B","maureen_fr_100","veronique_eng_17","jeremy_eng_17","maureen","veronique","jeremy","Y","UH","UH","UH","Y","VYB","VUHB","VUHB","B",0
"243","X_DEJRLMYFHX","eng","0:31.5",1,0,0,0,0,0,0,1,0,0,0,0,0,0,1,0,1,1,0,0,0,0,0,1,100,"eng",0,0,0,1,0,0,1,0,NA,NA,1,0,1,NA,0,0,0,0,0,1,NA,0,0,0,0,0,0,1,0,1,0,1,0,1,0,1,"eng","prot_catch_trial","triplet30","orderSI=16","orderAI=35","0:4.1","35;",0,1,NA,"B","Z_D","veronique_eng_65","maureen_fr_184","marc_fr_175","veronique","maureen","marc","AH","OE","OE","AH","OE","ZAHD","ZOED","ZOED","B",1
"244","X_DEJRLMYFHX","eng","0:31.5",1,0,0,0,0,0,0,1,0,0,0,0,0,0,1,0,1,1,0,0,0,0,0,1,100,"eng",0,0,0,1,0,0,1,0,NA,NA,1,0,1,NA,0,0,0,0,0,1,NA,0,0,0,0,0,0,1,0,1,0,1,0,1,0,1,"eng","prot_catch_trial","triplet32","orderSI=24","orderAI=36","0:4.3","36;",0,1,NA,"A","Z_SH","veronique_eng_48","maureen_fr_105","marc_fr_96","veronique","maureen","marc","AE","I","I","AE","I","ZAESH","ZISH","ZISH","B",0
"245","X_DEJRLMYFHX","eng","0:31.5",1,0,0,0,0,0,0,1,0,0,0,0,0,0,1,0,1,1,0,0,0,0,0,1,100,"eng",0,0,0,1,0,0,1,0,NA,NA,1,0,1,NA,0,0,0,0,0,1,NA,0,0,0,0,0,0,1,0,1,0,1,0,1,0,1,"eng","prot_catch_trial","triplet8","orderSI=35","orderAI=37","0:4.6","37;",1,0,NA,"A","V_Z","veronique_eng_30","maureen_fr_150","marc_fr_140","veronique","maureen","marc","UH","OE","OE","UH","OE","VUHZ","VOEZ","VOEZ","A",1
"246","X_DEJRLMYFHX","eng","0:31.5",1,0,0,0,0,0,0,1,0,0,0,0,0,0,1,0,1,1,0,0,0,0,0,1,100,"eng",0,0,0,1,0,0,1,0,NA,NA,1,0,1,NA,0,0,0,0,0,1,NA,0,0,0,0,0,0,1,0,1,0,1,0,1,0,1,"eng","prot_catch_trial","triplet47","orderSI=40","orderAI=38","0:4.4","38;",0,1,NA,"B","S_G","maureen_fr_222","veronique_eng_67","jeremy_eng_70","maureen","veronique","jeremy","A","AH","AH","AH","A","SAG","SAHG","SAHG","B",1
"247","X_DEJRLMYFHX","eng","0:31.5",1,0,0,0,0,0,0,1,0,0,0,0,0,0,1,0,1,1,0,0,0,0,0,1,100,"eng",0,0,0,1,0,0,1,0,NA,NA,1,0,1,NA,0,0,0,0,0,1,NA,0,0,0,0,0,0,1,0,1,0,1,0,1,0,1,"eng","prot_catch_trial","triplet46","orderSI=42","orderAI=39","0:4.3","39;",1,0,NA,"B","Z_F","maureen_eng_50","veronique_fr_113","marc_fr_108","maureen","veronique","marc","AE","Y","Y","AE","Y","ZAEF","ZYF","ZYF","A",0
"248","X_DEJRLMYFHX","eng","0:31.5",1,0,0,0,0,0,0,1,0,0,0,0,0,0,1,0,1,1,0,0,0,0,0,1,100,"eng",0,0,0,1,0,0,1,0,NA,NA,1,0,1,NA,0,0,0,0,0,1,NA,0,0,0,0,0,0,1,0,1,0,1,0,1,0,1,"eng","prot_catch_trial","triplet111","orderSI=43","orderAI=40","0:5.4","40;",0,1,NA,"B","Z_S","maureen_fr_55","veronique_eng_218","ewan_eng_235","maureen","veronique","ewan","E","IH","IH","IH","E","ZES","ZIHS","ZIHS","B",1
"249","X_DEJRLMYFHX","eng","0:31.5",1,0,0,0,0,0,0,1,0,0,0,0,0,0,1,0,1,1,0,0,0,0,0,1,100,"eng",0,0,0,1,0,0,1,0,NA,NA,1,0,1,NA,0,0,0,0,0,1,NA,0,0,0,0,0,0,1,0,1,0,1,0,1,0,1,"eng","prot_catch_trial","triplet84","orderSI=37","orderAI=41","0:3.7","41;",0,1,NA,"A","V_B","maureen_eng_77","veronique_fr_194","remi_fr_192","maureen","veronique","remi","AH","OE","OE","AH","OE","VAHB","VOEB","VOEB","B",0
"250","X_DEJRLMYFHX","eng","0:31.5",1,0,0,0,0,0,0,1,0,0,0,0,0,0,1,0,1,1,0,0,0,0,0,1,100,"eng",0,0,0,1,0,0,1,0,NA,NA,1,0,1,NA,0,0,0,0,0,1,NA,0,0,0,0,0,0,1,0,1,0,1,0,1,0,1,"eng","prot_catch_trial","triplet52","orderSI=45","orderAI=42","0:4.6","42;",0,1,NA,"A","SH_S","maureen_eng_117","veronique_fr_31","remi_fr_30","maureen","veronique","remi","AH","U","U","AH","U","SHAHS","SHUS","SHUS","B",0
"251","X_DEJRLMYFHX","eng","0:31.5",1,0,0,0,0,0,0,1,0,0,0,0,0,0,1,0,1,1,0,0,0,0,0,1,100,"eng",0,0,0,1,0,0,1,0,NA,NA,1,0,1,NA,0,0,0,0,0,1,NA,0,0,0,0,0,0,1,0,1,0,1,0,1,0,1,"eng","prot_catch_trial","triplet107","orderSI=52","orderAI=43","0:3.4","43;",1,0,NA,"B","V_SH","maureen_fr_166","veronique_eng_33","ewan_eng_36","maureen","veronique","ewan","O","UH","UH","UH","O","VOSH","VUHSH","VUHSH","A",0
